delay,freq,condition,trials.thisRepN,trials.thisTrialN,trials.thisN,trials.thisIndex,thisRow.t,notes,trial.started,fixation.started,polygon.started,key_resp.started,fixation.stopped,trial.stopped,key_resp.keys,key_resp.rt,key_resp.duration,beep.started,sound_1.started,sound_1.stopped,beep.stopped,response.started,text.started,textbox.started,button.started,response.stopped,textbox.text,button.numClicks,button.timesOn,button.timesOff,participant,session,date,expName,psychopyVersion,frameRate,expStart,
0.7,1000,exp,0,0,0,5,0.02504049986600876,,0.01372399996034801,0.02504049986600876,1.0113343999255449,1.0113343999255449,1.0279755999799818,1.5624002998229116,space,0.5348043998237699,None,1.5634145999792963,2.2778211665029326,2.5901289999019355,2.5680834997911006,2.568118199938908,2.5901289999019355,2.5901289999019355,2.5901289999019355,6.579401199938729,700,1,[4.008894800208509],[4.008903100155294],088775,001,2024-11-08_14h58.10.819,Priyanshi.AU2220101_Intentional.binding,2024.1.5,None,2024-11-08 14h58.19.123752 +0530,
0.1,1000,exp,0,1,1,9,6.595002499874681,,6.58102329983376,6.595002499874681,7.595235999906436,7.595235999906436,7.595235999906436,8.346232799813151,space,0.7428632001392543,None,8.346785199828446,8.46163486648972,8.769178699934855,8.755700399866328,8.75574449985288,8.769178699934855,8.769178699934855,8.769178699934855,11.879839699948207,800,1,[3.1217624000273645],[3.121773600112647],088775,001,2024-11-08_14h58.10.819,Priyanshi.AU2220101_Intentional.binding,2024.1.5,None,2024-11-08 14h58.19.123752 +0530,
0.4,1000,exp,0,2,2,4,11.894989999942482,,11.880924599943683,11.894989999942482,12.895065399818122,12.895065399818122,12.895065399818122,13.496791899902746,space,0.5984542998485267,None,13.497647399781272,13.911723966539528,14.223401399794966,14.205822799820453,14.205873999977484,14.223401399794966,14.223401399794966,14.223401399794966,16.662389499833807,500,1,[2.454124200157821],[2.4541339001152664],088775,001,2024-11-08_14h58.10.819,Priyanshi.AU2220101_Intentional.binding,2024.1.5,None,2024-11-08 14h58.19.123752 +0530,
0.1,1000,exp,0,3,3,3,16.6781371999532,,16.6636298999656,16.6781371999532,17.67822809983045,17.67822809983045,17.67822809983045,19.01251779985614,space,1.3227917000185698,None,19.01317059993744,19.12823026656794,19.438515999820083,19.425901599926874,19.426120499847457,19.438515999820083,19.438515999820083,19.438515999820083,24.812895899871364,555,1,[5.384676499990746],[5.38468679995276],088775,001,2024-11-08_14h58.10.819,Priyanshi.AU2220101_Intentional.binding,2024.1.5,None,2024-11-08 14h58.19.123752 +0530,
0.1,400,unexp,0,4,4,0,24.827646099962294,,24.813892199890688,24.827646099962294,25.827973200008273,25.827973200008273,25.827973200008273,27.02880009985529,space,1.1969984997995198,None,27.029490899993107,27.144460766638318,27.447041200008243,27.433422999922186,27.43346619978547,27.447041200008243,27.447041200008243,27.447041200008243,29.74620969989337,450,1,[2.310752599965781],[2.3107634000480175],088775,001,2024-11-08_14h58.10.819,Priyanshi.AU2220101_Intentional.binding,2024.1.5,None,2024-11-08 14h58.19.123752 +0530,
0.7,1000,exp,0,5,5,11,29.761109499959275,,29.747202099999413,29.761109499959275,30.76127259992063,30.76127259992063,30.76127259992063,32.14592589996755,space,1.3688999000005424,None,32.14665579982102,32.86098556645835,33.17097879992798,33.15642559994012,33.15647379984148,33.17097879992798,33.17097879992798,33.17097879992798,38.12930189981125,975,1,[4.970594299957156],[4.9706077999435365],088775,001,2024-11-08_14h58.10.819,Priyanshi.AU2220101_Intentional.binding,2024.1.5,None,2024-11-08 14h58.19.123752 +0530,
0.7,400,unexp,0,6,6,2,38.14408869994804,,38.13019629986957,38.14408869994804,39.14435529988259,39.14435529988259,39.14435529988259,39.67950169998221,space,0.5324997999705374,None,39.680271099787205,40.39409526653277,40.70873549999669,40.695817899890244,40.69586819992401,40.70873549999669,40.70873549999669,40.70873549999669,45.0787963999901,333,1,[4.380317399976775],[4.380329899955541],088775,001,2024-11-08_14h58.10.819,Priyanshi.AU2220101_Intentional.binding,2024.1.5,None,2024-11-08 14h58.19.123752 +0530,
0.4,1000,exp,0,7,7,7,45.09410719992593,,45.0798125998117,45.09410719992593,46.09363519982435,46.09363519982435,46.09363519982435,46.7783265998587,space,0.6772038000635803,None,46.77900859992951,47.19337356655548,47.49864489980973,47.48616879992187,47.48623069981113,47.49864489980973,47.49864489980973,47.49864489980973,50.04549499996938,500,1,[2.5569282001815736],[2.5569383001420647],088775,001,2024-11-08_14h58.10.819,Priyanshi.AU2220101_Intentional.binding,2024.1.5,None,2024-11-08 14h58.19.123752 +0530,
0.4,400,unexp,0,8,8,1,50.06053619994782,,50.04739229986444,50.06053619994782,51.0603832998313,51.0603832998313,51.0603832998313,51.59526199987158,space,0.5287242999766022,None,51.59600819996558,52.01065656665402,52.32041039993055,52.30618319986388,52.306222199928015,52.32041039993055,52.32041039993055,52.32041039993055,56.76247479999438,634,1,[4.454185199923813],[4.454215799923986],088775,001,2024-11-08_14h58.10.819,Priyanshi.AU2220101_Intentional.binding,2024.1.5,None,2024-11-08 14h58.19.123752 +0530,
0.1,1000,exp,0,9,9,6,56.77690409985371,,56.7633962999098,56.77690409985371,57.777069699950516,57.777069699950516,57.777069699950516,58.32826769980602,space,0.541624499950558,None,58.328975199954584,58.443639366483936,58.758882499998435,58.74606869998388,58.746113599976525,58.758882499998435,58.758882499998435,58.758882499998435,61.6627902998589,500,1,[2.9144026001449674],[2.914416200015694],088775,001,2024-11-08_14h58.10.819,Priyanshi.AU2220101_Intentional.binding,2024.1.5,None,2024-11-08 14h58.19.123752 +0530,
0.4,1000,exp,0,10,10,10,61.676767899887636,,61.66430599987507,61.676767899887636,62.677016199799255,62.677016199799255,62.677016199799255,63.478597699897364,space,0.7900869001168758,None,63.47927379980683,63.893351066454,64.2087643998675,64.19609609991312,64.19614549982361,64.2087643998675,64.2087643998675,64.2087643998675,67.12760229990818,700,1,[2.929505599895492],[2.9295151999685913],088775,001,2024-11-08_14h58.10.819,Priyanshi.AU2220101_Intentional.binding,2024.1.5,None,2024-11-08 14h58.19.123752 +0530,
0.7,1000,exp,0,11,11,8,67.14335589995608,,67.12854949990287,67.14335589995608,68.1435032999143,68.1435032999143,68.1435032999143,68.71163989999332,space,0.5585002000443637,None,68.71232269983739,69.42695376655708,69.73788289981894,69.72594689996913,69.72600299981423,69.73788289981894,69.73788289981894,69.73788289981894,72.07901019998826,800,1,[2.3502062999177724],[2.3502160999923944],088775,001,2024-11-08_14h58.10.819,Priyanshi.AU2220101_Intentional.binding,2024.1.5,None,2024-11-08 14h58.19.123752 +0530,
0.1,400,unexp,1,0,12,0,72.09356349986047,,72.0799233999569,72.09356349986047,73.09349090000615,73.09349090000615,73.09349090000615,73.62767570000142,space,0.5178799999412149,None,73.6282871000003,73.74353186652685,74.04769399994984,74.03554529999383,74.03558089979924,74.04769399994984,74.04769399994984,74.04769399994984,77.99487129994668,543,1,[3.9574247000273317],[3.9574365001171827],088775,001,2024-11-08_14h58.10.819,Priyanshi.AU2220101_Intentional.binding,2024.1.5,None,2024-11-08 14h58.19.123752 +0530,
0.4,1000,exp,1,1,13,4,78.00969169987366,,77.99583969986998,78.00969169987366,79.01024699979462,79.01024699979462,79.01024699979462,79.74539739987813,space,0.7330959001556039,None,79.7462561998982,80.16008096660177,80.4689268998336,80.45599439996295,80.45603569992818,80.4689268998336,80.4689268998336,80.4689268998336,83.14482799987309,800,1,[2.686312499921769],[2.686325400136411],088775,001,2024-11-08_14h58.10.819,Priyanshi.AU2220101_Intentional.binding,2024.1.5,None,2024-11-08 14h58.19.123752 +0530,
0.7,1000,exp,1,2,14,5,83.1610956999939,,83.14579649991356,83.1610956999939,84.15965109993704,84.15965109993704,84.17669709981419,84.94449309981428,space,0.7794367999304086,None,84.94523489987478,85.65958186664308,85.95960089983419,85.94479029998183,85.94482189998962,85.95960089983419,85.95960089983419,85.95960089983419,88.32860479992814,900,1,[2.381942099891603],[2.381951699964702],088775,001,2024-11-08_14h58.10.819,Priyanshi.AU2220101_Intentional.binding,2024.1.5,None,2024-11-08 14h58.19.123752 +0530,
0.7,400,unexp,1,3,15,2,88.34293429995887,,88.32936539989896,88.34293429995887,89.34308619983494,89.34308619983494,89.34308619983494,89.91115759988315,space,0.5521694999188185,None,89.91183159989305,90.62624536647151,90.93630639999174,90.92555369995534,90.92559070000425,90.93630639999174,90.93630639999174,90.93630639999174,98.26111959991977,520,1,[7.33344620000571],[7.3334576999768615],088775,001,2024-11-08_14h58.10.819,Priyanshi.AU2220101_Intentional.binding,2024.1.5,None,2024-11-08 14h58.19.123752 +0530,
0.1,1000,exp,1,4,16,6,98.27610699995421,,98.26218649977818,98.27610699995421,99.27586149983108,99.27586149983108,99.27586149983108,99.96082009980455,space,0.6803878999780864,None,99.96161779994145,100.07608456659752,100.38996099983342,100.37574449996464,100.37580529996194,100.38996099983342,100.38996099983342,100.38996099983342,105.32748959981836,650,1,[4.948983599897474],[4.948995299870148],088775,001,2024-11-08_14h58.10.819,Priyanshi.AU2220101_Intentional.binding,2024.1.5,None,2024-11-08 14h58.19.123752 +0530,
0.4,1000,exp,1,5,17,10,105.34269109996967,,105.32855649990961,105.34269109996967,106.34243949991651,106.34243949991651,106.34243949991651,106.94372529978864,space,0.5923624001443386,None,106.94452529982664,107.3590996666501,107.66941209998913,107.65533159999177,107.65537719987333,107.66941209998913,107.66941209998913,107.66941209998913,112.47650150000118,988,1,[4.819293899927288],[4.819303099997342],088775,001,2024-11-08_14h58.10.819,Priyanshi.AU2220101_Intentional.binding,2024.1.5,None,2024-11-08 14h58.19.123752 +0530,
0.7,1000,exp,1,6,18,11,112.49232409987599,,112.47744879988022,112.49232409987599,113.49220409989357,113.49220409989357,113.49220409989357,114.76050589978695,space,1.260946199996397,None,114.76118409982882,115.47544576652969,115.78697299980558,115.77564989984967,115.77569069992751,115.78697299980558,115.78697299980558,115.78697299980558,120.12826049979776,980,1,[4.3503835999872535],[4.350396999856457],088775,001,2024-11-08_14h58.10.819,Priyanshi.AU2220101_Intentional.binding,2024.1.5,None,2024-11-08 14h58.19.123752 +0530,
0.7,1000,exp,1,7,19,8,120.1421749999281,,120.12917269999161,120.1421749999281,121.14223649981432,121.14223649981432,121.14223649981432,121.74347789981402,space,0.5997530000749975,None,121.74418999999762,122.45864076662498,122.76754119992256,122.75551199982874,122.75554059981368,122.76754119992256,122.76754119992256,122.76754119992256,127.86145339999348,965,1,[5.104132399894297],[5.104144399985671],088775,001,2024-11-08_14h58.10.819,Priyanshi.AU2220101_Intentional.binding,2024.1.5,None,2024-11-08 14h58.19.123752 +0530,
0.1,1000,exp,1,8,20,3,127.87503649992868,,127.86242679995485,127.87503649992868,128.875267499825,128.875267499825,128.875267499825,129.49347749981098,space,0.610880000051111,None,129.49419599981047,129.60847776645485,129.91936439997517,129.9057736999821,129.90582359977998,129.91936439997517,129.91936439997517,129.91936439997517,133.7599647999741,975,1,[3.8519201001618057],[3.851930200122297],088775,001,2024-11-08_14h58.10.819,Priyanshi.AU2220101_Intentional.binding,2024.1.5,None,2024-11-08 14h58.19.123752 +0530,
0.4,400,unexp,1,9,21,1,133.77507149986923,,133.76079149986617,133.77507149986923,134.77466939995065,134.77466939995065,134.77466939995065,135.3604563998524,space,0.5814745998941362,None,135.36141249979846,135.77474806650233,136.08819499984384,136.0755578998942,136.0756204999052,136.08819499984384,136.08819499984384,136.08819499984384,140.92573499982245,500,1,[4.8476963001303375],[4.847705900203437],088775,001,2024-11-08_14h58.10.819,Priyanshi.AU2220101_Intentional.binding,2024.1.5,None,2024-11-08 14h58.19.123752 +0530,
0.1,1000,exp,1,10,22,9,140.94154519983567,,140.92673079995438,140.94154519983567,141.94172509992495,141.94172509992495,141.94172509992495,143.3590002998244,space,1.4098367998376489,None,143.35960809979588,143.4745166665564,143.78750689979643,143.77564269979484,143.77569099981338,143.78750689979643,143.78750689979643,143.78750689979643,147.39181219995953,670,1,[3.613959100097418],[3.613968800054863],088775,001,2024-11-08_14h58.10.819,Priyanshi.AU2220101_Intentional.binding,2024.1.5,None,2024-11-08 14h58.19.123752 +0530,
0.4,1000,exp,1,11,23,7,147.40758249978535,,147.39281079987995,147.40758249978535,148.4076843999792,148.4076843999792,148.4076843999792,148.92603929992765,space,0.5145055002067238,None,148.92674639984034,149.34158266644616,149.6485424998682,149.63740010000765,149.6374305000063,149.6485424998682,149.6485424998682,149.6485424998682,154.45857219980098,570,1,[4.819574699969962],[4.819584799930453],088775,001,2024-11-08_14h58.10.819,Priyanshi.AU2220101_Intentional.binding,2024.1.5,None,2024-11-08 14h58.19.123752 +0530,
0.1,1000,exp,2,0,24,6,154.47391840000637,,154.45958419982344,154.47391840000637,155.47404009988531,155.47404009988531,155.47404009988531,155.97577419993468,space,0.497173500014469,None,155.97650099988095,156.09075486666214,156.39781379979104,156.38501589978114,156.3850545999594,156.39781379979104,156.39781379979104,156.39781379979104,161.02654989995062,855,1,[4.63938540010713],[4.639401399996132],088775,001,2024-11-08_14h58.10.819,Priyanshi.AU2220101_Intentional.binding,2024.1.5,None,2024-11-08 14h58.19.123752 +0530,
0.4,1000,exp,2,1,25,4,161.04109519999474,,161.02797269984148,161.04109519999474,162.04068769980222,162.04068769980222,162.04068769980222,162.64193139993586,space,0.5973756997846067,None,162.6425902999472,163.05726406659622,163.36970739997923,163.35633119987324,163.35639789979905,163.36970739997923,163.36970739997923,163.36970739997923,166.24175079981796,850,1,[2.8829693999141455],[2.8829798998776823],088775,001,2024-11-08_14h58.10.819,Priyanshi.AU2220101_Intentional.binding,2024.1.5,None,2024-11-08 14h58.19.123752 +0530,
0.7,1000,exp,2,2,26,5,166.25697919982485,,166.24274409981444,166.25697919982485,167.25709420000203,167.25709420000203,167.25709420000203,167.8251989998389,space,0.5553386001847684,None,167.82581209996715,168.5408047666463,168.84759839996696,168.83503049984574,168.83508919994347,168.84759839996696,168.84759839996696,168.84759839996696,172.20884619979188,950,1,[3.3716054998803884],[3.3716168999671936],088775,001,2024-11-08_14h58.10.819,Priyanshi.AU2220101_Intentional.binding,2024.1.5,None,2024-11-08 14h58.19.123752 +0530,
0.4,400,unexp,2,3,27,1,172.22388349985704,,172.21004249993712,172.22388349985704,173.224035799969,173.224035799969,173.224035799969,173.72565049980767,space,0.49938579997979105,None,173.7263274998404,174.14036456664715,174.44639689987525,174.4351343999151,174.4351651999168,174.44639689987525,174.44639689987525,174.44639689987525,178.39178149984218,600,1,[3.9548551999032497],[3.95486729987897],088775,001,2024-11-08_14h58.10.819,Priyanshi.AU2220101_Intentional.binding,2024.1.5,None,2024-11-08 14h58.19.123752 +0530,
0.7,1000,exp,2,4,28,8,178.4064519999083,,178.39279089984484,178.4064519999083,179.40662759984843,179.40662759984843,179.40662759984843,179.92605979996733,space,0.5149536000099033,None,179.9270160999149,180.6406270666669,180.94864839990623,180.93525099987164,180.935297699878,180.94864839990623,180.94864839990623,180.94864839990623,184.00807939982042,700,1,[3.0706225000321865],[3.070631599985063],088775,001,2024-11-08_14h58.10.819,Priyanshi.AU2220101_Intentional.binding,2024.1.5,None,2024-11-08 14h58.19.123752 +0530,
0.4,1000,exp,2,5,29,10,184.02463889983483,,184.00908939982764,184.02463889983483,185.0238684997894,185.0238684997894,185.0238684997894,185.59120809985325,space,0.5527607998810709,None,185.59179209987633,186.00636006665107,186.31926259980537,186.30654399981722,186.3065965999849,186.31926259980537,186.31926259980537,186.31926259980537,188.80791420000605,800,1,[2.498900900129229],[2.4989104999694973],088775,001,2024-11-08_14h58.10.819,Priyanshi.AU2220101_Intentional.binding,2024.1.5,None,2024-11-08 14h58.19.123752 +0530,
0.1,400,unexp,2,6,30,0,188.82346310000867,,188.8088888998609,188.82346310000867,189.82320649991743,189.82320649991743,189.82320649991743,190.3244618999306,space,0.4977003000676632,None,190.32505729980767,190.43966306659084,190.7472737999633,190.73526749992743,190.7353065998759,190.7472737999633,190.7472737999633,190.7472737999633,193.94101379998028,500,1,[3.2035058999899775],[3.2035162998363376],088775,001,2024-11-08_14h58.10.819,Priyanshi.AU2220101_Intentional.binding,2024.1.5,None,2024-11-08 14h58.19.123752 +0530,
0.7,400,unexp,2,7,31,2,193.95648569986224,,193.94197159982286,193.95648569986224,194.95646059978753,194.95646059978753,194.95646059978753,195.67620119987987,space,0.7076787000987679,None,195.67709899996407,196.39015466656227,196.6999195998069,196.68546199984848,196.68550039990805,196.6999195998069,196.6999195998069,196.6999195998069,201.0243116999045,100,1,[4.336773399962112],[4.336783099919558],088775,001,2024-11-08_14h58.10.819,Priyanshi.AU2220101_Intentional.binding,2024.1.5,None,2024-11-08 14h58.19.123752 +0530,
0.4,1000,exp,2,8,32,7,201.03968269983307,,201.0250883998815,201.03968269983307,202.0395281999372,202.0395281999372,202.0395281999372,202.70760759990662,space,0.6655343000311404,None,202.70821419986896,203.12334686663624,203.436113699805,203.42499179998413,203.42502009985037,203.436113699805,203.436113699805,203.436113699805,207.54149829992093,400,1,[4.114838100038469],[4.114849899895489],088775,001,2024-11-08_14h58.10.819,Priyanshi.AU2220101_Intentional.binding,2024.1.5,None,2024-11-08 14h58.19.123752 +0530,
0.1,1000,exp,2,9,33,9,207.5564001998864,,207.54245579987764,207.5564001998864,208.55627469997853,208.55627469997853,208.55627469997853,209.3916919999756,space,0.8292417000047863,None,209.3925105999224,209.50605736655805,209.8173238998279,209.80586869991384,209.80591789982282,209.8173238998279,209.8173238998279,209.8173238998279,212.75807709991932,500,1,[2.9497364999260753],[2.949755100067705],088775,001,2024-11-08_14h58.10.819,Priyanshi.AU2220101_Intentional.binding,2024.1.5,None,2024-11-08 14h58.19.123752 +0530,
0.7,1000,exp,2,10,34,11,212.7724110998679,,212.7594426998403,212.7724110998679,213.77263819985092,213.77263819985092,213.77263819985092,214.27459389995784,space,0.49952790001407266,None,214.27532189991325,214.98970486649003,215.298376099905,215.28517279983498,215.2852141999174,215.298376099905,215.298376099905,215.298376099905,218.1573658999987,600,1,[2.8697965000756085],[2.869813600089401],088775,001,2024-11-08_14h58.10.819,Priyanshi.AU2220101_Intentional.binding,2024.1.5,None,2024-11-08 14h58.19.123752 +0530,
0.1,1000,exp,2,11,35,3,218.17245720000938,,218.15857579978183,218.17245720000938,219.17278459994122,219.17278459994122,219.17278459994122,219.84088309993967,space,0.6536024000961334,None,219.84170379978605,219.9561129664692,220.2703660998959,220.25584759982303,220.25590759981424,220.2703660998959,220.2703660998959,220.2703660998959,222.7426148999948,600,1,[2.4838147999253124],[2.483856200007722],088775,001,2024-11-08_14h58.10.819,Priyanshi.AU2220101_Intentional.binding,2024.1.5,None,2024-11-08 14h58.19.123752 +0530,
0.7,1000,exp,3,0,36,5,222.75629599997774,,222.74366909987293,222.75629599997774,223.75649589998648,223.75649589998648,223.75649589998648,224.25738369999453,space,0.4886118001304567,None,224.25800969987176,224.97250236646894,225.28310249978676,225.27259099995717,225.2726252998691,225.28310249978676,225.28310249978676,225.28310249978676,228.1575029999949,650,1,[2.883225900121033],[2.8832372000906616],088775,001,2024-11-08_14h58.10.819,Priyanshi.AU2220101_Intentional.binding,2024.1.5,None,2024-11-08 14h58.19.123752 +0530,
0.1,1000,exp,3,1,37,9,228.1727310998831,,228.15848309989087,228.1727310998831,229.1721753999591,229.1721753999591,229.1721753999591,230.1407581998501,space,0.9666452999226749,None,230.14142709993757,230.25551246648345,230.567363999784,230.5553536999505,230.5553996998351,230.567363999784,230.567363999784,230.567363999784,233.0737705999054,600,1,[2.516113599995151],[2.5161252999678254],088775,001,2024-11-08_14h58.10.819,Priyanshi.AU2220101_Intentional.binding,2024.1.5,None,2024-11-08 14h58.19.123752 +0530,
0.1,400,unexp,3,2,38,0,233.08898049988784,,233.0748496998567,233.08898049988784,234.08874449995346,234.08874449995346,234.08874449995346,234.60760439978912,space,0.513398899929598,None,234.60824679979123,234.72289016662788,235.0359791999217,235.02501759980805,235.0250479998067,235.0359791999217,235.0359791999217,235.0359791999217,237.33991929981858,300,1,[2.313021899899468],[2.3130322999786586],088775,001,2024-11-08_14h58.10.819,Priyanshi.AU2220101_Intentional.binding,2024.1.5,None,2024-11-08 14h58.19.123752 +0530,
0.1,1000,exp,3,3,39,3,237.35512119997293,,237.34088579984382,237.35512119997293,238.35568019980565,238.35568019980565,238.35568019980565,239.291431899881,space,0.9226179998368025,None,239.2925761998631,239.4058757664791,239.7163507998921,239.7050713999197,239.70511519978754,239.7163507998921,239.7163507998921,239.7163507998921,242.00636100000702,400,1,[2.2994053000584245],[2.2994132998865098],088775,001,2024-11-08_14h58.10.819,Priyanshi.AU2220101_Intentional.binding,2024.1.5,None,2024-11-08 14h58.19.123752 +0530,
0.7,1000,exp,3,4,40,11,242.0216162998695,,242.00731069990434,242.0216162998695,243.02230189996772,243.02230189996772,243.02230189996772,243.69106639991514,space,0.6663490000646561,None,243.69187559979036,244.40561096655827,244.71795889991336,244.70508369989693,244.70515890000388,244.71795889991336,244.71795889991336,244.71795889991336,248.82311529992148,600,1,[4.115471600089222],[4.115482500055805],088775,001,2024-11-08_14h58.10.819,Priyanshi.AU2220101_Intentional.binding,2024.1.5,None,2024-11-08 14h58.19.123752 +0530,
0.4,400,unexp,3,5,41,1,248.83857459994033,,248.82427469990216,248.83857459994033,249.83842339995317,249.83842339995317,249.83842339995317,250.25656599993818,space,0.4087667998392135,None,250.25731499982066,250.6726611664674,250.9774262998253,250.96508969995193,250.9651287999004,250.9774262998253,250.9774262998253,250.9774262998253,253.42239359999076,400,1,[2.4551390998531133],[2.4551488999277353],088775,001,2024-11-08_14h58.10.819,Priyanshi.AU2220101_Intentional.binding,2024.1.5,None,2024-11-08 14h58.19.123752 +0530,
0.7,400,unexp,3,6,42,2,253.43804439995438,,253.42335919989273,253.43804439995438,254.4384569998365,254.4384569998365,254.4384569998365,255.0897417999804,space,0.6391221000812948,None,255.09036179981194,255.8052768665987,256.11816889978945,256.1053541000001,256.1054084999487,256.11816889978945,256.11816889978945,256.11816889978945,258.80622339993715,400,1,[2.6987043998669833],[2.698714300058782],088775,001,2024-11-08_14h58.10.819,Priyanshi.AU2220101_Intentional.binding,2024.1.5,None,2024-11-08 14h58.19.123752 +0530,
0.1,1000,exp,3,7,43,6,258.8215762998443,,258.80719229998067,258.8215762998443,259.82190319988877,259.82190319988877,259.82190319988877,260.3565695998259,space,0.5253805001266301,None,260.35736969998106,260.4715019665348,260.82459919992834,260.81420979998074,260.8142537998501,260.82459919992834,260.82459919992834,260.82459919992834,263.47351969988085,800,1,[2.6574300001375377],[2.6574407999869436],088775,001,2024-11-08_14h58.10.819,Priyanshi.AU2220101_Intentional.binding,2024.1.5,None,2024-11-08 14h58.19.123752 +0530,
0.7,1000,exp,3,8,44,8,263.48827669979073,,263.4743278999813,263.48827669979073,264.48795380000956,264.48795380000956,264.48795380000956,265.03964159986936,space,0.5468338998034596,None,265.04047649982385,265.7546235665834,266.0599807999097,266.04847689997405,266.04850269993767,266.0599807999097,266.0599807999097,266.0599807999097,269.23886289983056,900,1,[3.188748799962923],[3.188758200034499],088775,001,2024-11-08_14h58.10.819,Priyanshi.AU2220101_Intentional.binding,2024.1.5,None,2024-11-08 14h58.19.123752 +0530,
0.4,1000,exp,3,9,45,4,269.25441759987734,,269.2398387999274,269.25441759987734,270.2544096999336,270.2544096999336,270.2544096999336,272.32327890000306,space,2.0661176000721753,None,272.3239868998062,272.7378480665541,273.0476347999647,273.0351737998426,273.03522799978964,273.0476347999647,273.0476347999647,273.0476347999647,276.0572738999035,800,1,[3.0192941001150757],[3.0193032999522984],088775,001,2024-11-08_14h58.10.819,Priyanshi.AU2220101_Intentional.binding,2024.1.5,None,2024-11-08 14h58.19.123752 +0530,
0.4,1000,exp,3,10,46,10,276.07146779983304,,276.05807559983805,276.07146779983304,277.0709077999927,277.0709077999927,277.0709077999927,277.9889249999542,space,0.9111585998907685,None,277.98963560000993,278.4042781666542,278.71781319985166,278.7052089998033,278.7052601999603,278.71781319985166,278.71781319985166,278.71781319985166,281.10522719984874,700,1,[2.397592500085011],[2.3976018000394106],088775,001,2024-11-08_14h58.10.819,Priyanshi.AU2220101_Intentional.binding,2024.1.5,None,2024-11-08 14h58.19.123752 +0530,
0.4,1000,exp,3,11,47,7,281.12086519994773,,281.1066468998324,281.12086519994773,282.1208147997968,282.1208147997968,282.1208147997968,282.9727629998233,space,0.8464353999588639,None,282.9736441997811,283.3877707664544,283.69747249991633,283.68513169977814,283.6851675999351,283.69747249991633,283.69747249991633,283.69747249991633,286.20581839978695,700,1,[2.5180777001660317],[2.51808900013566],088775,001,2024-11-08_14h58.10.819,Priyanshi.AU2220101_Intentional.binding,2024.1.5,None,2024-11-08 14h58.19.123752 +0530,
0.4,1000,exp,4,0,48,10,286.2206401999574,,286.2067887999583,286.2206401999574,287.22144519980066,287.22144519980066,287.22144519980066,287.7389783000108,space,0.5011147998739034,None,287.7395704998635,288.15452256665253,288.46926229982637,288.4554063999094,288.4554609998595,288.46926229982637,288.46926229982637,288.46926229982637,291.67245129984803,760,1,[3.2145752999931574],[3.214603800093755],088775,001,2024-11-08_14h58.10.819,Priyanshi.AU2220101_Intentional.binding,2024.1.5,None,2024-11-08 14h58.19.123752 +0530,
0.7,1000,exp,4,1,49,11,291.68748719990253,,291.6734348000027,291.68748719990253,292.6875294998754,292.6875294998754,292.6875294998754,293.30486609996296,space,0.6018143999390304,None,293.30550749995746,294.0205740666172,294.331761599984,294.315466,294.3155195999425,294.331761599984,294.331761599984,294.331761599984,297.8381112997886,700,1,[3.520433299941942],[3.5204431999009103],088775,001,2024-11-08_14h58.10.819,Priyanshi.AU2220101_Intentional.binding,2024.1.5,None,2024-11-08 14h58.19.123752 +0530,
0.4,1000,exp,4,2,50,7,297.8535078999121,,297.8390777998138,297.8535078999121,298.8540732997935,298.8540732997935,298.8540732997935,300.92405299982056,space,2.066562300082296,None,300.92498419992626,301.337083866649,301.6468814997934,301.6349750999361,301.6350175999105,301.6468814997934,301.6468814997934,301.6468814997934,305.2879222999327,700,1,[3.650326100178063],[3.650336900027469],088775,001,2024-11-08_14h58.10.819,Priyanshi.AU2220101_Intentional.binding,2024.1.5,None,2024-11-08 14h58.19.123752 +0530,
0.7,1000,exp,4,3,51,8,305.30323099996895,,305.2889219999779,305.30323099996895,306.3035195998382,306.3035195998382,306.3035195998382,307.07204519980587,space,0.7591355999466032,None,307.07287609996274,307.78711426660107,308.0975353999529,308.08502139989287,308.0850605999585,308.0975353999529,308.0975353999529,308.0975353999529,310.53804269991815,600,1,[2.4503959000576288],[2.4504054998978972],088775,001,2024-11-08_14h58.10.819,Priyanshi.AU2220101_Intentional.binding,2024.1.5,None,2024-11-08 14h58.19.123752 +0530,
0.4,1000,exp,4,4,52,4,310.5534854999278,,310.53906359989196,310.5534854999278,311.55384469986893,311.55384469986893,311.55384469986893,312.7057633998338,space,1.1470923000015318,None,312.7066232999787,313.12003936648057,313.42848449992016,313.41498229978606,313.41502609988675,313.42848449992016,313.42848449992016,313.42848449992016,315.97220249986276,600,1,[2.554835099959746],[2.5548481000587344],088775,001,2024-11-08_14h58.10.819,Priyanshi.AU2220101_Intentional.binding,2024.1.5,None,2024-11-08 14h58.19.123752 +0530,
0.1,400,unexp,4,5,53,0,315.9867616998963,,315.97311459993944,315.9867616998963,316.9865226999391,316.9865226999391,316.9865226999391,317.5375992998015,space,0.5475445000920445,None,317.5382675998844,317.6535508665877,317.9673396998551,317.95607049996033,317.9561202998739,317.9673396998551,317.9673396998551,317.9673396998551,320.406462199986,500,1,[2.447993699926883],[2.448022099910304],088775,001,2024-11-08_14h58.10.819,Priyanshi.AU2220101_Intentional.binding,2024.1.5,None,2024-11-08 14h58.19.123752 +0530,
0.4,400,unexp,4,6,54,1,320.4201812997926,,320.40788259985857,320.4201812997926,321.4199140998535,321.4199140998535,321.4199140998535,321.77086509997025,space,0.34096010006032884,None,321.7714597999584,322.1865143664802,322.5407278998755,322.52814359986223,322.5281926000025,322.5407278998755,322.5407278998755,322.5407278998755,324.6384868999012,500,1,[2.108390500070527],[2.1084044000599533],088775,001,2024-11-08_14h58.10.819,Priyanshi.AU2220101_Intentional.binding,2024.1.5,None,2024-11-08 14h58.19.123752 +0530,
0.1,1000,exp,4,7,55,6,324.65291609987617,,324.63941759988666,324.65291609987617,325.65305429999717,325.65305429999717,325.65305429999717,326.15422869985923,space,0.49166840012185276,None,326.15485709998757,326.26998556667627,326.5794685999863,326.5645862999372,326.56462479988113,326.5794685999863,326.5794685999863,326.5794685999863,328.9871865999885,600,1,[2.4204579000361264],[2.4204677001107484],088775,001,2024-11-08_14h58.10.819,Priyanshi.AU2220101_Intentional.binding,2024.1.5,None,2024-11-08 14h58.19.123752 +0530,
0.7,400,unexp,4,8,56,2,329.00252759992145,,328.98820659983903,329.00252759992145,330.0029706999194,330.0029706999194,330.0029706999194,330.50538959982805,space,0.4898401000536978,None,330.5061523998156,331.22012956656204,331.52722639986314,331.51487349998206,331.5149198998697,331.52722639986314,331.52722639986314,331.52722639986314,334.38845049985684,400,1,[2.871889199828729],[2.871899699792266],088775,001,2024-11-08_14h58.10.819,Priyanshi.AU2220101_Intentional.binding,2024.1.5,None,2024-11-08 14h58.19.123752 +0530,
0.1,1000,exp,4,9,57,3,334.4026649999432,,334.38942249980755,334.4026649999432,335.40324309980497,335.40324309980497,335.40324309980497,336.02151219989173,space,0.6048397000413388,None,336.0222532998305,336.1362774666088,336.4478769998532,336.4355941999238,336.4356406999286,336.4478769998532,336.4478769998532,336.4478769998532,338.738311199937,700,1,[2.300699200015515],[2.3007100999820977],088775,001,2024-11-08_14h58.10.819,Priyanshi.AU2220101_Intentional.binding,2024.1.5,None,2024-11-08 14h58.19.123752 +0530,
0.7,1000,exp,4,10,58,5,338.75277229980566,,338.73925179988146,338.75277229980566,339.7530272998847,339.7530272998847,339.7530272998847,340.3379469998181,space,0.5817892998456955,None,340.3387127998285,341.05256466666856,341.36655969987623,341.35525569994934,341.35530349984765,341.36655969987623,341.36655969987623,341.36655969987623,343.43719379999675,800,1,[2.0798917000647634],[2.0799016999080777],088775,001,2024-11-08_14h58.10.819,Priyanshi.AU2220101_Intentional.binding,2024.1.5,None,2024-11-08 14h58.19.123752 +0530,
0.1,1000,exp,4,11,59,9,343.45289149996825,,343.43813449982554,343.45289149996825,344.45304099982604,344.45304099982604,344.45304099982604,344.9884601999074,space,0.5323721000459045,None,344.9893274998758,345.10250786651545,345.4177314999979,345.40476909978315,345.4048225998413,345.4177314999979,345.4177314999979,345.4177314999979,347.7370315999724,900,1,[2.3301055000629276],[2.3301153001375496],088775,001,2024-11-08_14h58.10.819,Priyanshi.AU2220101_Intentional.binding,2024.1.5,None,2024-11-08 14h58.19.123752 +0530,
0.7,1000,exp,5,0,60,5,347.752698399825,,347.7380295000039,347.752698399825,348.7524363999255,348.7524363999255,348.7524363999255,349.32147119985893,space,0.5671858000569046,None,349.3223162998911,350.0359423666416,350.3469625997823,350.3353444999084,350.335388999898,350.3469625997823,350.3469625997823,350.3469625997823,352.9866524999961,700,1,[2.649273700080812],[2.6492852000519633],088775,001,2024-11-08_14h58.10.819,Priyanshi.AU2220101_Intentional.binding,2024.1.5,None,2024-11-08 14h58.19.123752 +0530,
0.4,1000,exp,5,1,61,7,353.0022917999886,,352.9877404998988,353.0022917999886,354.002325899899,354.002325899899,354.002325899899,354.5046432998497,space,0.5003027999773622,None,354.50541909993626,354.91950436664433,355.22814289992675,355.2150969998911,355.2151362998411,355.22814289992675,355.22814289992675,355.22814289992675,357.9032067998778,700,1,[2.686129500158131],[2.6861415000166744],088775,001,2024-11-08_14h58.10.819,Priyanshi.AU2220101_Intentional.binding,2024.1.5,None,2024-11-08 14h58.19.123752 +0530,
0.1,400,unexp,5,2,62,0,357.91861119982786,,357.904185899999,357.91861119982786,358.9193895999342,358.9193895999342,358.9193895999342,359.43691849987954,space,0.5131268000695854,None,359.43764469982125,359.55250206665755,359.86522209993564,359.8543864998501,359.8544187999796,359.86522209993564,359.86522209993564,359.86522209993564,362.35290379985236,400,1,[2.496734600048512],[2.496744900010526],088775,001,2024-11-08_14h58.10.819,Priyanshi.AU2220101_Intentional.binding,2024.1.5,None,2024-11-08 14h58.19.123752 +0530,
0.7,400,unexp,5,3,63,2,362.36851359996945,,362.3538746999111,362.36851359996945,363.36899069999345,363.36899069999345,363.36899069999345,365.3200704997871,space,1.9476848000194877,None,365.32076219981536,366.03537566663385,366.34653989993967,366.3350311999675,366.33507549995556,366.34653989993967,366.34653989993967,366.34653989993967,368.2542991999071,500,1,[1.9171375001315027],[1.9171502001117915],088775,001,2024-11-08_14h58.10.819,Priyanshi.AU2220101_Intentional.binding,2024.1.5,None,2024-11-08 14h58.19.123752 +0530,
0.4,1000,exp,5,4,64,4,368.2688207998872,,368.2551880998071,368.2688207998872,369.2687766999006,369.2687766999006,369.2687766999006,369.9368023998104,space,0.6581393000669777,None,369.937530499883,370.3520619664962,370.67316589993425,370.6551244999282,370.65517279994674,370.67316589993425,370.67316589993425,370.67316589993425,372.91999570000917,700,1,[2.262396200094372],[2.262408300070092],088775,001,2024-11-08_14h58.10.819,Priyanshi.AU2220101_Intentional.binding,2024.1.5,None,2024-11-08 14h58.19.123752 +0530,
0.1,1000,exp,5,5,65,3,372.93536739982665,,372.92100859992206,372.93536739982665,373.93556529982015,373.93556529982015,373.93556529982015,374.65443589980714,space,0.7130597999785095,None,374.65529069979675,374.76866426651054,375.0777521999553,375.06457709986717,375.0646123997867,375.0777521999553,375.0777521999553,375.0777521999553,378.01932689989917,600,1,[2.952957100002095],[2.9529669999610633],088775,001,2024-11-08_14h58.10.819,Priyanshi.AU2220101_Intentional.binding,2024.1.5,None,2024-11-08 14h58.19.123752 +0530,
0.7,1000,exp,5,6,66,11,378.03521299990825,,378.0203040000051,378.03521299990825,379.0189082999714,379.0189082999714,379.03604919998907,380.20328729995526,space,1.177999199833721,None,380.2040876999963,380.9183484665739,381.2302228999324,381.21437989990227,381.214421399869,381.2302228999324,381.2302228999324,381.2302228999324,384.7368044999894,400,1,[3.520329999970272],[3.5203389001544565],088775,001,2024-11-08_14h58.10.819,Priyanshi.AU2220101_Intentional.binding,2024.1.5,None,2024-11-08 14h58.19.123752 +0530,
0.4,1000,exp,5,7,67,10,384.7518805998843,,384.73776119994,384.7518805998843,385.75181950000115,385.75181950000115,385.75181950000115,386.3026558998972,space,0.5378169000614434,None,386.3033425998874,386.71790916665145,387.0218584998511,387.00858719996177,387.008628499927,387.0218584998511,387.0218584998511,387.0218584998511,392.90247169998474,560,1,[5.891536299837753],[5.89154880004935],088775,001,2024-11-08_14h58.10.819,Priyanshi.AU2220101_Intentional.binding,2024.1.5,None,2024-11-08 14h58.19.123752 +0530,
0.1,1000,exp,5,8,68,6,392.91807829984464,,392.90325499977916,392.91807829984464,393.9179344999138,393.9179344999138,393.9179344999138,394.7370207000058,space,0.8032968000043184,None,394.7377080998849,394.8525339665978,395.1711672998499,395.1585199998226,395.15855739987455,395.1711672998499,395.1711672998499,395.1711672998499,397.853622399969,700,1,[2.692804800113663],[2.6928163999691606],088775,001,2024-11-08_14h58.10.819,Priyanshi.AU2220101_Intentional.binding,2024.1.5,None,2024-11-08 14h58.19.123752 +0530,
0.4,400,unexp,5,9,69,1,397.8681452998426,,397.85441459994763,397.8681452998426,398.86822169995867,398.86822169995867,398.86822169995867,399.3859732998535,space,0.5061997999437153,None,399.38666509999894,399.8021717665872,400.10787740000524,400.0949097999837,400.09495709999464,400.10787740000524,400.10787740000524,400.10787740000524,402.43588329991326,500,1,[2.338888700120151],[2.3388968999497592],088775,001,2024-11-08_14h58.10.819,Priyanshi.AU2220101_Intentional.binding,2024.1.5,None,2024-11-08 14h58.19.123752 +0530,
0.7,1000,exp,5,10,70,8,402.45153829990886,,402.43692829995416,402.45153829990886,403.45143529982306,403.45143529982306,403.45143529982306,403.9856113998685,space,0.522823000093922,None,403.9860908999108,404.7008615665293,405.0078548998572,404.9947427997831,404.9948010998778,405.0078548998572,405.0078548998572,405.0078548998572,407.5692764997948,400,1,[2.57232840009965],[2.572339399950579],088775,001,2024-11-08_14h58.10.819,Priyanshi.AU2220101_Intentional.binding,2024.1.5,None,2024-11-08 14h58.19.123752 +0530,
0.1,1000,exp,5,11,71,9,407.5847056999337,,407.570235399995,407.5847056999337,408.5840678999666,408.5840678999666,408.5840678999666,409.16884699999355,space,0.5761293999385089,None,409.1695316999685,409.2843080666537,409.5943421998527,409.58440639986657,409.5844395000022,409.5943421998527,409.5943421998527,409.5943421998527,412.269020000007,300,1,[2.6830599000677466],[2.683069600025192],088775,001,2024-11-08_14h58.10.819,Priyanshi.AU2220101_Intentional.binding,2024.1.5,None,2024-11-08 14h58.19.123752 +0530,
0.1,1000,exp,6,0,72,6,412.28453459986486,,412.2700662999414,412.28453459986486,413.28403399977833,413.28403399977833,413.28403399977833,413.8526337998919,space,0.5585624000523239,None,413.8532510998193,413.96759366646097,414.2770877999719,414.26449449989013,414.26453849999234,414.2770877999719,414.2770877999719,414.2770877999719,416.93497279984877,200,1,[2.6676012000534683],[2.6676106001250446],088775,001,2024-11-08_14h58.10.819,Priyanshi.AU2220101_Intentional.binding,2024.1.5,None,2024-11-08 14h58.19.123752 +0530,
0.4,1000,exp,6,1,73,10,416.95020969980396,,416.93596449983306,416.95020969980396,417.9506975999102,417.9506975999102,417.9506975999102,418.53673659986816,space,0.5837159000802785,None,418.5376673999708,418.9510180666732,419.25863429997116,419.2445325998124,419.2445715998765,419.25863429997116,419.25863429997116,419.25863429997116,421.31815639999695,100,1,[2.071404399815947],[2.071413700003177],088775,001,2024-11-08_14h58.10.819,Priyanshi.AU2220101_Intentional.binding,2024.1.5,None,2024-11-08 14h58.19.123752 +0530,
0.4,1000,exp,6,2,74,7,421.3336544998456,,421.3191548998002,421.3336544998456,422.334155799821,422.334155799821,422.334155799821,424.0188988998998,space,1.667533200001344,None,424.01946199988015,424.43420686648847,424.7458051999565,424.73435729998164,424.73440069984645,424.7458051999565,424.7458051999565,424.7458051999565,428.00195089983754,200,1,[3.265271699987352],[3.2652834998443723],088775,001,2024-11-08_14h58.10.819,Priyanshi.AU2220101_Intentional.binding,2024.1.5,None,2024-11-08 14h58.19.123752 +0530,
0.7,1000,exp,6,3,75,5,428.0174833999481,,428.002961399965,428.0174833999481,429.0172023999039,429.0172023999039,429.0172023999039,429.55176729988307,space,0.5306047999765724,None,429.5523989999201,430.26688236656287,430.57704439992085,430.5641684997827,430.56421240000054,430.57704439992085,430.57704439992085,430.57704439992085,432.53600879991427,300,1,[1.9688200999516994],[1.9688317000400275],088775,001,2024-11-08_14h58.10.819,Priyanshi.AU2220101_Intentional.binding,2024.1.5,None,2024-11-08 14h58.19.123752 +0530,
0.7,1000,exp,6,4,76,11,432.55036039999686,,432.53680419991724,432.55036039999686,433.5502209998667,433.5502209998667,433.5502209998667,434.018404699862,space,0.4637156000826508,None,434.0190802998841,434.7340294665812,435.0468361999374,435.03439149982296,435.03444459987804,435.0468361999374,435.0468361999374,435.0468361999374,437.8844468998723,300,1,[2.847910200012848],[2.847920299973339],088775,001,2024-11-08_14h58.10.819,Priyanshi.AU2220101_Intentional.binding,2024.1.5,None,2024-11-08 14h58.19.123752 +0530,
0.7,1000,exp,6,5,77,8,437.89998169988394,,437.8854542998597,437.89998169988394,438.90042119985446,438.90042119985446,438.90042119985446,439.38527309987694,space,0.47293719998560846,None,439.38607819983736,440.10050486663044,440.4091513999738,440.3946755998768,440.3947753999382,440.4091513999738,440.4091513999738,440.4091513999738,442.56810999987647,400,1,[2.1706479000858963],[2.1706670001149178],088775,001,2024-11-08_14h58.10.819,Priyanshi.AU2220101_Intentional.binding,2024.1.5,None,2024-11-08 14h58.19.123752 +0530,
0.1,400,unexp,6,6,78,0,442.58312499988824,,442.56945179984905,442.58312499988824,443.58351459982805,443.58351459982805,443.58351459982805,444.5183789997827,space,0.920705699827522,None,444.51932620001025,444.6333345666683,444.9451254999731,444.93445129995234,444.9344891998917,444.9451254999731,444.9451254999731,444.9451254999731,447.3020507998299,100,1,[2.3657398000359535],[2.3657500999979675],088775,001,2024-11-08_14h58.10.819,Priyanshi.AU2220101_Intentional.binding,2024.1.5,None,2024-11-08 14h58.19.123752 +0530,
0.7,400,unexp,6,7,79,2,447.31688089994714,,447.3029686999507,447.31688089994714,448.3168343999423,448.3168343999423,448.3168343999423,448.86882709991187,space,0.5409804000519216,None,448.8696724998299,449.5832522665771,449.8952740000095,449.8843767999206,449.8844152998645,449.8952740000095,449.8952740000095,449.8952740000095,452.4017825999763,200,1,[2.5153129000682384],[2.515325500164181],088775,001,2024-11-08_14h58.10.819,Priyanshi.AU2220101_Intentional.binding,2024.1.5,None,2024-11-08 14h58.19.123752 +0530,
0.4,400,unexp,6,8,80,1,452.416663199896,,452.4027692999225,452.416663199896,453.4163069999777,453.4163069999777,453.4163069999777,454.1678840999957,space,0.7427995998878032,None,454.16885789996013,454.5831818665067,454.89957049977966,454.8845108000096,454.88456209981814,454.89957049977966,454.89957049977966,454.89957049977966,458.0671914999839,200,1,[3.18048970005475],[3.1805024000350386],088775,001,2024-11-08_14h58.10.819,Priyanshi.AU2220101_Intentional.binding,2024.1.5,None,2024-11-08 14h58.19.123752 +0530,
0.4,1000,exp,6,9,81,4,458.0827457997948,,458.0681297997944,458.0827457997948,459.08299819985405,459.08299819985405,459.08299819985405,459.68585049989633,space,0.5956698001828045,None,459.6869633998722,460.10018036660426,460.4082812999841,460.39438909990713,460.39442399982363,460.4082812999841,460.4082812999841,460.4082812999841,463.46804609987885,400,1,[3.071313199819997],[3.0713243999052793],088775,001,2024-11-08_14h58.10.819,Priyanshi.AU2220101_Intentional.binding,2024.1.5,None,2024-11-08 14h58.19.123752 +0530,
0.1,1000,exp,6,10,82,9,463.48314099991694,,463.4689462999813,463.48314099991694,464.48306359979324,464.48306359979324,464.48306359979324,465.9835611998569,space,1.4846787999849766,None,465.98427929985337,466.09947026666873,466.40943939983845,466.39444079995155,466.3944768998772,466.40943939983845,466.40943939983845,466.40943939983845,468.4006872999016,500,1,[2.0040500999893993],[2.004058900056407],088775,001,2024-11-08_14h58.10.819,Priyanshi.AU2220101_Intentional.binding,2024.1.5,None,2024-11-08 14h58.19.123752 +0530,
0.1,1000,exp,6,11,83,3,468.416210899828,,468.40181089984253,468.416210899828,469.41584289981984,469.41584289981984,469.41584289981984,470.05118289985694,space,0.6329534000251442,None,470.05195799982175,470.16593196645067,470.4792410999071,470.46475559985265,470.4648217000067,470.4792410999071,470.4792410999071,470.4792410999071,472.8837005998939,400,1,[2.4162169001065195],[2.4162288999650627],088775,001,2024-11-08_14h58.10.819,Priyanshi.AU2220101_Intentional.binding,2024.1.5,None,2024-11-08 14h58.19.123752 +0530,
0.4,1000,exp,7,0,84,7,472.8990586998407,,472.8846499999054,472.8990586998407,473.89923089998774,473.89923089998774,473.89923089998774,475.25123089994304,space,1.339549500029534,None,475.2519146997947,475.66615816654325,475.9776558999438,475.96431269985624,475.9643741999753,475.9776558999438,475.9776558999438,475.9776558999438,478.80143979983404,500,1,[2.8345745999831706],[2.834589999867603],088775,001,2024-11-08_14h58.10.819,Priyanshi.AU2220101_Intentional.binding,2024.1.5,None,2024-11-08 14h58.19.123752 +0530,
0.1,1000,exp,7,1,85,9,478.8160829998087,,478.80244129989296,478.8160829998087,479.81643199990503,479.81643199990503,479.81643199990503,481.6167983999476,space,1.785027400124818,None,481.61741909990087,481.7322978666673,482.0472515998408,482.03541169990785,482.0354659999721,482.0472515998408,482.0472515998408,482.0472515998408,483.9180582999252,500,1,[1.8802241999655962],[1.8802371001802385],088775,001,2024-11-08_14h58.10.819,Priyanshi.AU2220101_Intentional.binding,2024.1.5,None,2024-11-08 14h58.19.123752 +0530,
0.1,1000,exp,7,2,86,3,483.93244539992884,,483.9194989998359,483.93244539992884,484.93205229984596,484.93205229984596,484.93205229984596,486.19989209994674,space,1.2556417000014335,None,486.20045269979164,486.31559516658695,486.6279982998967,486.6142899999395,486.61435429984704,486.6279982998967,486.6279982998967,486.6279982998967,489.1834901999682,500,1,[2.566578699974343],[2.5665885999333113],088775,001,2024-11-08_14h58.10.819,Priyanshi.AU2220101_Intentional.binding,2024.1.5,None,2024-11-08 14h58.19.123752 +0530,
0.4,1000,exp,7,3,87,4,489.1990106999874,,489.1843075999059,489.1990106999874,490.198650599923,490.198650599923,490.198650599923,490.7175735998899,space,0.5155678000301123,None,490.7181859998964,491.1325234666622,491.447449499974,491.4347506999038,491.4347895998508,491.447449499974,491.447449499974,491.447449499974,493.84946439997293,500,1,[2.412616000045091],[2.412626100005582],088775,001,2024-11-08_14h58.10.819,Priyanshi.AU2220101_Intentional.binding,2024.1.5,None,2024-11-08 14h58.19.123752 +0530,
0.7,400,unexp,7,4,88,2,493.8651142998133,,493.85027469997294,493.8651142998133,494.84943199995905,494.84943199995905,494.8659046997782,495.450170799857,space,0.594289000146091,None,495.4508191999048,496.1657825664772,496.4786454997957,496.4651437997818,496.465216799872,496.4786454997957,496.4786454997957,496.4786454997957,498.71640599984676,200,1,[2.2484275999013335],[2.2484372998587787],088775,001,2024-11-08_14h58.10.819,Priyanshi.AU2220101_Intentional.binding,2024.1.5,None,2024-11-08 14h58.19.123752 +0530,
0.4,1000,exp,7,5,89,10,498.7321115999948,,498.71732609998435,498.7321115999948,499.7325281999074,499.7325281999074,499.7325281999074,500.20012929989025,space,0.46110109984874725,None,500.20076809986494,500.6155838666639,500.9246290998999,500.91456119995564,500.9145998999011,500.9246290998999,500.9246290998999,500.9246290998999,503.53389809979126,500,1,[2.61739100003615],[2.6174051999114454],088775,001,2024-11-08_14h58.10.819,Priyanshi.AU2220101_Intentional.binding,2024.1.5,None,2024-11-08 14h58.19.123752 +0530,
0.7,1000,exp,7,6,90,5,503.5485338999424,,503.5348509999458,503.5485338999424,504.5488789998926,504.5488789998926,504.5488789998926,505.16616859985515,space,0.604582300176844,None,505.1668767000083,505.88174296665625,506.1958670997992,506.18432549992576,506.1843824000098,506.1958670997992,506.1958670997992,506.1958670997992,508.817383099813,600,1,[2.630907899932936],[2.6309207000304013],088775,001,2024-11-08_14h58.10.819,Priyanshi.AU2220101_Intentional.binding,2024.1.5,None,2024-11-08 14h58.19.123752 +0530,
0.4,400,unexp,7,7,91,1,508.831551999785,,508.8181111998856,508.831551999785,509.8315121999476,509.8315121999476,509.8315121999476,510.3665397998411,space,0.5194500000216067,None,510.36741449986584,510.78158196650134,511.08631949988194,511.074254399864,511.0742877998855,511.08631949988194,511.08631949988194,511.08631949988194,513.8823991999961,100,1,[2.806419200031087],[2.806433100020513],088775,001,2024-11-08_14h58.10.819,Priyanshi.AU2220101_Intentional.binding,2024.1.5,None,2024-11-08 14h58.19.123752 +0530,
0.1,1000,exp,7,8,92,6,513.8980268999003,,513.8833991999272,513.8980268999003,514.8820938998833,514.8820938998833,514.8988498998806,515.5161690998357,space,0.6182448000181466,None,515.5167481999379,515.6319534665129,515.9510152998846,515.9347680998035,515.9348169998266,515.9510152998846,515.9510152998846,515.9510152998846,518.6658914999571,500,1,[2.7289494001306593],[2.728960000211373],088775,001,2024-11-08_14h58.10.819,Priyanshi.AU2220101_Intentional.binding,2024.1.5,None,2024-11-08 14h58.19.123752 +0530,
0.7,1000,exp,7,9,93,8,518.6812042999081,,518.6668182997964,518.6812042999081,519.6818806999363,519.6818806999363,519.6818806999363,520.2494219997898,space,0.5570825999602675,None,520.2501125999261,520.9643712666041,,521.1984191997908,521.1984484998975,521.2143682998139,521.2143682998139,521.2143682998139,523.6163369999267,500,1,[2.4163422000128776],[2.4163510999642313],088775,001,2024-11-08_14h58.10.819,Priyanshi.AU2220101_Intentional.binding,2024.1.5,None,2024-11-08 14h58.19.123752 +0530,
0.7,1000,exp,7,10,94,11,523.6315637999214,,523.6172962998971,523.6315637999214,524.6316211000085,524.6316211000085,524.6316211000085,525.3153368998319,space,0.6761402999982238,None,525.3161059999838,526.0315811664952,526.346754899947,526.3345154998824,526.3345663999207,526.346754899947,526.346754899947,526.346754899947,529.0320109999739,300,1,[2.6953928999137133],[2.69540339987725],088775,001,2024-11-08_14h58.10.819,Priyanshi.AU2220101_Intentional.binding,2024.1.5,None,2024-11-08 14h58.19.123752 +0530,
0.1,400,unexp,7,11,95,0,529.0476949999575,,529.0329872998409,529.0476949999575,530.047813099809,530.047813099809,530.047813099809,531.4324273997918,space,1.369322899961844,None,531.4329798999242,531.5478053666341,,531.7942979999352,531.7943638998549,531.807091599796,531.807091599796,531.807091599796,534.9662885998841,400,1,[3.1698030999395996],[3.1698147000279278],088775,001,2024-11-08_14h58.10.819,Priyanshi.AU2220101_Intentional.binding,2024.1.5,None,2024-11-08 14h58.19.123752 +0530,
0.4,1000,exp,8,0,96,4,534.9811785998754,,534.9672247997951,534.9811785998754,535.9812717000023,535.9812717000023,535.9812717000023,537.2319908998907,space,1.2437583999708295,None,537.2326238998212,537.6475353665339,537.9581559998915,537.9439503999893,537.9439909998327,537.9581559998915,537.9581559998915,537.9581559998915,541.8988219997846,600,1,[3.952594299800694],[3.9526052000001073],088775,001,2024-11-08_14h58.10.819,Priyanshi.AU2220101_Intentional.binding,2024.1.5,None,2024-11-08 14h58.19.123752 +0530,
0.1,1000,exp,8,1,97,9,541.9147282999475,,541.8997387997806,541.9147282999475,542.9150936999358,542.9150936999358,542.9150936999358,543.4992647999898,space,0.5749921998940408,None,543.5000157000031,543.6144448666057,543.959338999819,543.9445504997857,543.9446067998651,543.959338999819,543.959338999819,543.959338999819,546.7987834999803,600,1,[2.851812700042501],[2.851822700118646],088775,001,2024-11-08_14h58.10.819,Priyanshi.AU2220101_Intentional.binding,2024.1.5,None,2024-11-08 14h58.19.123752 +0530,
0.7,1000,exp,8,2,98,5,546.8148648999631,,546.7997604999691,546.8148648999631,547.8143328998704,547.8143328998704,547.8143328998704,550.0819906999823,space,2.2601165000814945,None,550.0827647999395,550.7975091664741,551.1069196998142,551.0937641998753,551.0938287999015,551.1069196998142,551.1069196998142,551.1069196998142,553.8818828999065,500,1,[2.785805799998343],[2.7858172999694943],088775,001,2024-11-08_14h58.10.819,Priyanshi.AU2220101_Intentional.binding,2024.1.5,None,2024-11-08 14h58.19.123752 +0530,
0.1,1000,exp,8,3,99,3,553.8971009999514,,553.8829243998043,553.8971009999514,554.8975111998152,554.8975111998152,554.8975111998152,555.4654115999583,space,0.5606480001006275,None,555.4661675998941,555.5808321666593,555.8885882999748,555.8744029998779,555.8744463999756,555.8885882999748,555.8885882999748,555.8885882999748,558.7000391997863,600,1,[2.8232650000136346],[2.823276000097394],088775,001,2024-11-08_14h58.10.819,Priyanshi.AU2220101_Intentional.binding,2024.1.5,None,2024-11-08 14h58.19.123752 +0530,
0.7,400,unexp,8,4,100,2,558.7139117999468,,558.700816999888,558.7139117999468,559.7143017998897,559.7143017998897,559.7143017998897,560.3480185999069,space,0.6281023998744786,None,560.3486375999637,561.0635206665067,561.3762573997956,561.3640094997827,561.3640745999292,561.3762573997956,561.3762573997956,561.3762573997956,563.3823473998345,300,1,[2.0159714999608696],[2.0159934998955578],088775,001,2024-11-08_14h58.10.819,Priyanshi.AU2220101_Intentional.binding,2024.1.5,None,2024-11-08 14h58.19.123752 +0530,
0.1,400,unexp,8,5,101,0,563.3968656999059,,563.383321199799,563.3968656999059,564.3972066999413,564.3972066999413,564.3972066999413,565.0816651999485,space,0.6810490000061691,None,565.0825753998943,565.196841666537,565.5063220998272,565.495656899875,565.4956912999041,565.5063220998272,565.5063220998272,565.5063220998272,568.9478019999806,200,1,[3.45050899987109],[3.450518999947235],088775,001,2024-11-08_14h58.10.819,Priyanshi.AU2220101_Intentional.binding,2024.1.5,None,2024-11-08 14h58.19.123752 +0530,
0.4,1000,exp,8,6,102,7,568.9631498998497,,568.9487858999055,568.9631498998497,569.9632355999202,569.9632355999202,569.9632355999202,570.5147858997807,space,0.546908900141716,None,570.5154613999184,570.9304729665785,571.2371403998695,571.2237471998669,571.2238008999266,571.2371403998695,571.2371403998695,571.2371403998695,573.847566699842,600,1,[2.621557499980554],[2.621567000169307],088775,001,2024-11-08_14h58.10.819,Priyanshi.AU2220101_Intentional.binding,2024.1.5,None,2024-11-08 14h58.19.123752 +0530,
0.4,400,unexp,8,7,103,1,573.8629949998576,,573.848559099948,573.8629949998576,574.8635467998683,574.8635467998683,574.8635467998683,575.714849299984,space,0.8367751000914723,None,575.7156418999657,576.1303979666593,576.4434879999608,576.4241356998682,576.4242182997987,576.4434879999608,576.4434879999608,576.4434879999608,579.0476991999894,100,1,[2.621153100160882],[2.6211622001137584],088775,001,2024-11-08_14h58.10.819,Priyanshi.AU2220101_Intentional.binding,2024.1.5,None,2024-11-08 14h58.19.123752 +0530,
0.7,1000,exp,8,8,104,8,579.063567499863,,579.0486631998792,579.063567499863,580.0636475000065,580.0636475000065,580.0636475000065,581.1472584998701,space,1.0699364999309182,None,581.1495453999378,581.8628998664828,582.1767149998341,582.1640796998981,582.1641249000095,582.1767149998341,582.1767149998341,582.1767149998341,584.5644409998786,500,1,[2.3981876999605447],[2.398196700029075],088775,001,2024-11-08_14h58.10.819,Priyanshi.AU2220101_Intentional.binding,2024.1.5,None,2024-11-08 14h58.19.123752 +0530,
0.4,1000,exp,8,9,105,10,584.5798603999428,,584.5653740998823,584.5798603999428,585.5794712000061,585.5794712000061,585.5794712000061,585.9313456998207,space,0.33737129997462034,None,585.9321743999608,586.3461444664902,586.6559857998509,586.6438128999434,586.643858899828,586.6559857998509,586.6559857998509,586.6559857998509,589.2149666999467,500,1,[2.5683371000923216],[2.568348699947819],088775,001,2024-11-08_14h58.10.819,Priyanshi.AU2220101_Intentional.binding,2024.1.5,None,2024-11-08 14h58.19.123752 +0530,
0.7,1000,exp,8,10,106,11,589.2293072999455,,589.2158932997845,589.2293072999455,590.229781899834,590.229781899834,590.229781899834,591.1820619998034,space,0.9494330000597984,None,591.1828210998792,591.8969852666526,592.2068333998322,592.1939782998525,592.1940456999,592.2068333998322,592.2068333998322,592.2068333998322,594.8326387999114,600,1,[2.635907399933785],[2.6359204999171197],088775,001,2024-11-08_14h58.10.819,Priyanshi.AU2220101_Intentional.binding,2024.1.5,None,2024-11-08 14h58.19.123752 +0530,
0.1,1000,exp,8,11,107,6,594.8463125999551,,594.8335344998632,594.8463125999551,595.8464059999678,595.8464059999678,595.8464059999678,596.5643325999845,space,0.7056001999881119,None,596.5651103998534,596.6796262665341,596.9867670999374,596.9738202998415,596.9738578998949,596.9867670999374,596.9867670999374,596.9867670999374,606.8643711998593,645,1,[9.887767400126904],[9.887778599979356],088775,001,2024-11-08_14h58.10.819,Priyanshi.AU2220101_Intentional.binding,2024.1.5,None,2024-11-08 14h58.19.123752 +0530,
0.1,1000,exp,9,0,108,3,606.879573599901,,606.8652877998538,606.879573599901,607.8793064998463,607.8793064998463,607.8793064998463,608.4641780999955,space,0.5738219001796097,None,608.4650109999347,608.579293066465,608.8860675999895,608.8740845997818,608.8741230999585,608.8860675999895,608.8860675999895,608.8860675999895,612.9463994000107,545,1,[4.070350999943912],[4.070361300138757],088775,001,2024-11-08_14h58.10.819,Priyanshi.AU2220101_Intentional.binding,2024.1.5,None,2024-11-08 14h58.19.123752 +0530,
0.7,1000,exp,9,1,109,8,612.9620109999087,,612.9473698998336,612.9620109999087,613.9619850998279,613.9619850998279,613.9619850998279,614.6306171999313,space,0.6658338999841362,None,614.6313050999306,615.3460498664683,615.6568819999229,615.6435888998676,615.6436308999546,615.6568819999229,615.6568819999229,615.6568819999229,619.8141328999773,600,1,[4.167906800052151],[4.167918300023302],088775,001,2024-11-08_14h58.10.819,Priyanshi.AU2220101_Intentional.binding,2024.1.5,None,2024-11-08 14h58.19.123752 +0530,
0.4,1000,exp,9,2,110,7,619.8287897999398,,619.8152575998101,619.8287897999398,620.8286875998601,620.8286875998601,620.8286875998601,621.3800686998293,space,0.5463664000853896,None,621.3807188998908,621.7952858666579,622.105356299784,622.0935257999226,622.0937491999939,622.105356299784,622.105356299784,622.105356299784,630.0296555999666,560,1,[7.933624099940062],[7.933638299815357],088775,001,2024-11-08_14h58.10.819,Priyanshi.AU2220101_Intentional.binding,2024.1.5,None,2024-11-08 14h58.19.123752 +0530,
0.7,400,unexp,9,3,111,2,630.0451252998319,,630.0306810999755,630.0451252998319,631.0455086999573,631.0455086999573,631.0455086999573,631.6801368999295,space,0.6292175999842584,None,631.6809281997848,632.3951892664811,,632.6289599998854,632.6290030998643,632.6446557999589,632.6446557999589,632.6446557999589,635.2627038999926,300,1,[2.6316653001122177],[2.6316757001914084],088775,001,2024-11-08_14h58.10.819,Priyanshi.AU2220101_Intentional.binding,2024.1.5,None,2024-11-08 14h58.19.123752 +0530,
0.4,400,unexp,9,4,112,1,635.2780651999637,,635.2639614997897,635.2780651999637,636.2783833998255,636.2783833998255,636.2783833998255,637.1140852998942,space,0.8290007999166846,None,637.1146296998486,637.5285752665407,637.8382333999034,637.8236717998516,637.8237294999417,637.8382333999034,637.8382333999034,637.8382333999034,639.863286799984,200,1,[2.037426099879667],[2.037438099971041],088775,001,2024-11-08_14h58.10.819,Priyanshi.AU2220101_Intentional.binding,2024.1.5,None,2024-11-08 14h58.19.123752 +0530,
0.4,1000,exp,9,5,113,4,639.878096899949,,639.8642966998741,639.878096899949,640.8780679998454,640.8780679998454,640.8780679998454,641.4131283999886,space,0.5251744000706822,None,641.4139426997863,641.8283950666121,642.136215099832,642.1238395997789,642.1238814999815,642.136215099832,642.136215099832,642.136215099832,644.7797584999353,600,1,[2.653415100183338],[2.653429300058633],088775,001,2024-11-08_14h58.10.819,Priyanshi.AU2220101_Intentional.binding,2024.1.5,None,2024-11-08 14h58.19.123752 +0530,
0.4,1000,exp,9,6,114,10,644.7946809998248,,644.7808381000068,644.7946809998248,645.79494599998,645.79494599998,645.79494599998,647.1123934998177,space,1.313786500133574,None,647.1130338998046,647.5278566666568,647.8359242998995,647.8240101998672,647.8240649998188,647.8359242998995,647.8359242998995,647.8359242998995,650.5129880998284,700,1,[2.6864867999684066],[2.6864971998147666],088775,001,2024-11-08_14h58.10.819,Priyanshi.AU2220101_Intentional.binding,2024.1.5,None,2024-11-08 14h58.19.123752 +0530,
0.1,400,unexp,9,7,115,0,650.5279790998902,,650.5139273998793,650.5279790998902,651.5275816000067,651.5275816000067,651.5275816000067,652.1128409998491,space,0.5761702000163496,None,652.1134982998483,652.2278512665691,652.5364974997938,652.5234134998173,652.5234640999697,652.5364974997938,652.5364974997938,652.5364974997938,655.2295245998539,400,1,[2.7041605999693274],[2.7041720000561327],088775,001,2024-11-08_14h58.10.819,Priyanshi.AU2220101_Intentional.binding,2024.1.5,None,2024-11-08 14h58.19.123752 +0530,
0.1,1000,exp,9,8,116,6,655.2442463999614,,655.2305157999508,655.2442463999614,656.2444372999016,656.2444372999016,656.2444372999016,656.8467623000033,space,0.5940076000988483,None,656.8476354999002,656.9610737665246,657.2754238999914,657.2634835999925,657.2635225998238,657.2754238999914,657.2754238999914,657.2754238999914,659.6796675999649,600,1,[2.4139751999173313],[2.4139890999067575],088775,001,2024-11-08_14h58.10.819,Priyanshi.AU2220101_Intentional.binding,2024.1.5,None,2024-11-08 14h58.19.123752 +0530,
0.1,1000,exp,9,9,117,9,659.6940950998105,,659.6806818000041,659.6940950998105,660.6944809998386,660.6944809998386,660.6944809998386,661.3127474999055,space,0.6033912999555469,None,661.3134178000037,661.4282022666341,661.7365846999455,661.7233483998571,661.7233874998055,661.7365846999455,661.7365846999455,661.7365846999455,664.0958867999725,500,1,[2.370542800053954],[2.3705547000281513],088775,001,2024-11-08_14h58.10.819,Priyanshi.AU2220101_Intentional.binding,2024.1.5,None,2024-11-08 14h58.19.123752 +0530,
0.7,1000,exp,9,10,118,11,664.1109483998735,,664.0968501998577,664.1109483998735,665.1113609999884,665.1113609999884,665.1113609999884,665.5624671999831,space,0.4356180001050234,None,665.5631973999552,666.2780187666106,666.5868214999791,666.5735698000062,666.5736207999289,666.5868214999791,666.5868214999791,666.5868214999791,668.9454649998806,500,1,[2.369764900067821],[2.3697744999080896],088775,001,2024-11-08_14h58.10.819,Priyanshi.AU2220101_Intentional.binding,2024.1.5,None,2024-11-08 14h58.19.123752 +0530,
0.7,1000,exp,9,11,119,5,668.9608368999325,,668.9463710999116,668.9608368999325,669.9610356998164,669.9610356998164,669.9610356998164,670.5457052998245,space,0.5775961999315768,None,670.5462277999613,671.260975266636,671.5770914999302,671.5640894998796,671.5641389999073,671.5770914999302,671.5770914999302,671.5770914999302,674.9468898999039,450,1,[3.380523399915546],[3.38053399999626],088775,001,2024-11-08_14h58.10.819,Priyanshi.AU2220101_Intentional.binding,2024.1.5,None,2024-11-08 14h58.19.123752 +0530,
0.7,1000,exp,10,0,120,5,674.9612153999042,,674.9476966999937,674.9612153999042,675.9606348997913,675.9606348997913,675.9606348997913,676.4450941998512,space,0.4758699999656528,None,676.4457797999494,677.1611883666521,677.4764756998047,677.4640306998044,677.4640685999766,677.4764756998047,677.4764756998047,677.4764756998047,680.0286546999123,500,1,[2.562586900079623],[2.562599200056866],088775,001,2024-11-08_14h58.10.819,Priyanshi.AU2220101_Intentional.binding,2024.1.5,None,2024-11-08 14h58.19.123752 +0530,
0.1,1000,exp,10,1,121,6,680.0438773999922,,680.02966559981,680.0438773999922,681.0444277999923,681.0444277999923,681.0444277999923,681.4123285999522,space,0.3572448999620974,None,681.4131597999949,681.5274514665982,681.8361923999619,681.82374719996,681.8237974999938,681.8361923999619,681.8361923999619,681.8361923999619,684.0297916999552,500,1,[2.2037480000872165],[2.20376139995642],088775,001,2024-11-08_14h58.10.819,Priyanshi.AU2220101_Intentional.binding,2024.1.5,None,2024-11-08 14h58.19.123752 +0530,
0.4,400,unexp,10,2,122,1,684.0441350999754,,684.0307702999562,684.0441350999754,685.0444925997872,685.0444925997872,685.0444925997872,685.5952523997985,space,0.5395861999131739,None,685.5958231999539,686.0111709666128,686.3270241999999,686.3134867998306,686.3135312998202,686.3270241999999,686.3270241999999,686.3270241999999,689.8124442999251,200,1,[3.4968351998832077],[3.4968465000856668],088775,001,2024-11-08_14h58.10.819,Priyanshi.AU2220101_Intentional.binding,2024.1.5,None,2024-11-08 14h58.19.123752 +0530,
0.7,1000,exp,10,3,123,8,689.8270984999835,,689.8133880998939,689.8270984999835,690.8265929999761,690.8265929999761,690.8265929999761,691.3113570997957,space,0.47960299998521805,None,691.3119957998861,692.0268357664502,692.3353194999509,692.3234536999371,692.323491099989,692.3353194999509,692.3353194999509,692.3353194999509,695.0614616000094,500,1,[2.735734200105071],[2.735750400228426],088775,001,2024-11-08_14h58.10.819,Priyanshi.AU2220101_Intentional.binding,2024.1.5,None,2024-11-08 14h58.19.123752 +0530,
0.1,400,unexp,10,4,124,0,695.0767633998767,,695.0628343999851,695.0767633998767,696.0767250999343,696.0767250999343,696.0767250999343,696.7615416999906,space,0.6697310998570174,None,696.7621056998614,696.8772157666428,697.1864055998158,697.1742526998278,697.1743193999864,697.1864055998158,697.1864055998158,697.1864055998158,699.6776425999124,300,1,[2.5006512000691146],[2.5006655000615865],088775,001,2024-11-08_14h58.10.819,Priyanshi.AU2220101_Intentional.binding,2024.1.5,None,2024-11-08 14h58.19.123752 +0530,
0.4,1000,exp,10,5,125,10,699.6934237999376,,699.678588999901,699.6934237999376,700.6933478999417,700.6933478999417,700.6933478999417,701.261213199934,space,0.5645053000189364,None,701.261731099803,701.6768690664942,701.9858395999763,701.973152599996,701.9732051999308,701.9858395999763,701.9858395999763,701.9858395999763,705.4467432999518,500,1,[3.4713753000833094],[3.471386200049892],088775,001,2024-11-08_14h58.10.819,Priyanshi.AU2220101_Intentional.binding,2024.1.5,None,2024-11-08 14h58.19.123752 +0530,
0.1,1000,exp,10,6,126,9,705.4603712998796,,705.4475143998861,705.4603712998796,706.4602628999855,706.4602628999855,706.4602628999855,706.827932999935,space,0.36339389998465776,None,706.8289762998465,706.9432239665805,707.2553725999314,707.2434769999236,707.2435220999178,707.2553725999314,707.2553725999314,707.2553725999314,709.6951740998775,600,1,[2.449305299902335],[2.4493165998719633],088775,001,2024-11-08_14h58.10.819,Priyanshi.AU2220101_Intentional.binding,2024.1.5,None,2024-11-08 14h58.19.123752 +0530,
0.4,1000,exp,10,7,127,4,709.7102110998239,,709.6962054998148,709.7102110998239,710.7100726999342,710.7100726999342,710.7100726999342,711.5119670999702,space,0.7998687999788672,None,711.5127717999276,711.9265069666474,712.2363056999166,712.2237062999047,712.2237644998822,712.2363056999166,712.2363056999166,712.2363056999166,714.2294532000087,600,1,[2.0025806999765337],[2.002592399949208],088775,001,2024-11-08_14h58.10.819,Priyanshi.AU2220101_Intentional.binding,2024.1.5,None,2024-11-08 14h58.19.123752 +0530,
0.7,400,unexp,10,8,128,2,714.2431952999905,,714.2304561999626,714.2431952999905,715.2429678000044,715.2429678000044,715.2429678000044,715.7948786998168,space,0.5494758000131696,None,715.7957450998947,716.5095470664712,716.8143332998734,716.8034434998408,716.8034841998015,716.8143332998734,716.8143332998734,716.8143332998734,719.2271688999608,300,1,[2.4220920000225306],[2.4221023998688906],088775,001,2024-11-08_14h58.10.819,Priyanshi.AU2220101_Intentional.binding,2024.1.5,None,2024-11-08 14h58.19.123752 +0530,
0.4,1000,exp,10,9,129,7,719.242388199782,,719.228141099913,719.242388199782,720.2428240999579,720.2428240999579,720.2428240999579,721.2954784999602,space,1.050561900017783,None,721.2963698999956,721.7100340666404,722.0181379998103,722.003409099998,722.0034446998034,722.0181379998103,722.0181379998103,722.0181379998103,729.9605562998913,675,1,[7.954819600097835],[7.95482790004462],088775,001,2024-11-08_14h58.10.819,Priyanshi.AU2220101_Intentional.binding,2024.1.5,None,2024-11-08 14h58.19.123752 +0530,
0.7,1000,exp,10,10,130,11,729.9758043999318,,729.9615245999303,729.9758043999318,730.9756542998366,730.9756542998366,730.9756542998366,731.5269615999423,space,0.5429372999351472,None,731.5274995998479,732.242848366561,732.5560620999895,732.5434914999641,732.5435322998092,732.5560620999895,732.5560620999895,732.5560620999895,735.6936422998551,333,1,[3.1480221999809146],[3.1480301001574844],088775,001,2024-11-08_14h58.10.819,Priyanshi.AU2220101_Intentional.binding,2024.1.5,None,2024-11-08 14h58.19.123752 +0530,
0.1,1000,exp,10,11,131,3,735.7092372998595,,735.6946487999521,735.7092372998595,736.7093119998462,736.7093119998462,736.7093119998462,737.1107618999667,space,0.39976800000295043,None,737.1113983998075,737.2261295666142,737.5362379997969,737.5236344998702,737.5236758999527,737.5362379997969,737.5362379997969,737.5362379997969,741.7932050998788,455,1,[4.266834700014442],[4.266844299854711],088775,001,2024-11-08_14h58.10.819,Priyanshi.AU2220101_Intentional.binding,2024.1.5,None,2024-11-08 14h58.19.123752 +0530,
0.7,1000,exp,11,0,132,8,741.8088289999869,,741.7942232999485,741.8088289999869,742.8086692998186,742.8086692998186,742.8086692998186,743.4266170999035,space,0.6108675000723451,None,743.4273021998815,744.1426756666663,744.4565211997833,744.4438544998411,744.443900299957,744.4565211997833,744.4565211997833,744.4565211997833,747.1607219998259,555,1,[2.714299699990079],[2.714309100061655],088775,001,2024-11-08_14h58.10.819,Priyanshi.AU2220101_Intentional.binding,2024.1.5,None,2024-11-08 14h58.19.123752 +0530,
0.1,1000,exp,11,1,133,3,747.1754136998206,,747.1614342997782,747.1754136998206,748.1758705999237,748.1758705999237,748.1758705999237,748.7437556998339,space,0.5664049999322742,None,748.7442538999021,748.8590696666545,749.1694317997899,749.1534487998579,749.1534897999372,749.1694317997899,749.1694317997899,749.1694317997899,753.6594417998567,545,1,[4.503860699944198],[4.503873999929056],088775,001,2024-11-08_14h58.10.819,Priyanshi.AU2220101_Intentional.binding,2024.1.5,None,2024-11-08 14h58.19.123752 +0530,
0.4,1000,exp,11,2,134,10,753.6750233999919,,753.6604269999079,753.6750233999919,754.6756816999987,754.6756816999987,754.6756816999987,755.2264041998424,space,0.5390663999132812,None,755.2268959998619,755.6421422665628,,755.9034376000054,755.9034742999356,755.9183613997884,755.9183613997884,755.9183613997884,759.0432570998091,500,1,[3.1375994998961687],[3.137610600097105],088775,001,2024-11-08_14h58.10.819,Priyanshi.AU2220101_Intentional.binding,2024.1.5,None,2024-11-08 14h58.19.123752 +0530,
0.7,1000,exp,11,3,135,5,759.0586027998943,,759.0440785998944,759.0586027998943,760.0588761998806,760.0588761998806,760.0588761998806,760.6766218999401,space,0.6127377999946475,None,760.6773148998618,761.3922326665527,761.7045831999276,761.6933675999753,761.6934151998721,761.7045831999276,761.7045831999276,761.7045831999276,764.8278113999404,560,1,[3.132211099844426],[3.132224699947983],088775,001,2024-11-08_14h58.10.819,Priyanshi.AU2220101_Intentional.binding,2024.1.5,None,2024-11-08 14h58.19.123752 +0530,
0.4,400,unexp,11,4,136,1,764.8420959999785,,764.8288228998426,764.8420959999785,765.8414030999411,765.8414030999411,765.8414030999411,766.4758679999504,space,0.6281061000190675,None,766.4764497999568,766.891694666647,767.2056201999076,767.1940421999898,767.1940774999093,767.2056201999076,767.2056201999076,767.2056201999076,771.6778373999987,200,1,[4.481096799951047],[4.481106699910015],088775,001,2024-11-08_14h58.10.819,Priyanshi.AU2220101_Intentional.binding,2024.1.5,None,2024-11-08 14h58.19.123752 +0530,
0.1,1000,exp,11,5,137,6,771.691715599969,,771.678786699893,771.691715599969,772.6916558998637,772.6916558998637,772.6916558998637,773.259582699975,space,0.5543613000772893,None,773.2603090999182,773.37494216656,773.6895359999035,773.6766435999889,773.676693999907,773.6895359999035,773.6895359999035,773.6895359999035,776.4765892999712,700,1,[2.797753000166267],[2.797763300128281],088775,001,2024-11-08_14h58.10.819,Priyanshi.AU2220101_Intentional.binding,2024.1.5,None,2024-11-08 14h58.19.123752 +0530,
0.4,1000,exp,11,6,138,7,776.4914564997889,,776.4775935998186,776.4914564997889,777.4916656999849,777.4916656999849,777.4916656999849,778.1257360999007,space,0.6175003000535071,None,778.1264189998619,778.5415494666124,778.8554258998483,778.8434504999314,778.8434952998068,778.8554258998483,778.8554258998483,778.8554258998483,781.7753813997842,600,1,[2.9297533000353724],[2.9297632998786867],088775,001,2024-11-08_14h58.10.819,Priyanshi.AU2220101_Intentional.binding,2024.1.5,None,2024-11-08 14h58.19.123752 +0530,
0.7,1000,exp,11,7,139,11,781.7907808998134,,781.7763922999147,781.7907808998134,782.7912725999486,782.7912725999486,782.7912725999486,783.3768846997991,space,0.5837004999630153,None,783.3776185999159,784.091538366458,784.4075108999386,784.3931826998014,784.39323409996,784.4075108999386,784.4075108999386,784.4075108999386,789.1256072998513,350,1,[4.729873700067401],[4.729885600041598],088775,001,2024-11-08_14h58.10.819,Priyanshi.AU2220101_Intentional.binding,2024.1.5,None,2024-11-08 14h58.19.123752 +0530,
0.4,1000,exp,11,8,140,4,789.1410163999535,,789.1266373000108,789.1410163999535,790.1411691999529,790.1411691999529,790.1411691999529,790.7919694997836,space,0.646101700142026,None,790.7925731998403,791.2079609665709,791.5194347999059,791.5029802999925,791.5030192998238,791.5194347999059,791.5194347999059,791.5194347999059,794.1757390999701,360,1,[2.6702658999711275],[2.6702800998464227],088775,001,2024-11-08_14h58.10.819,Priyanshi.AU2220101_Intentional.binding,2024.1.5,None,2024-11-08 14h58.19.123752 +0530,
0.1,1000,exp,11,9,141,9,794.1908996999264,,794.1768379998393,794.1908996999264,795.1911887999158,795.1911887999158,795.1911887999158,795.9264203999192,space,0.7282428999897093,None,795.9271122999489,796.0411362664929,796.3550824997947,796.3432045998052,796.3432443998754,796.3550824997947,796.3550824997947,796.3550824997947,798.4592549998779,400,1,[2.1140478998422623],[2.114060399821028],088775,001,2024-11-08_14h58.10.819,Priyanshi.AU2220101_Intentional.binding,2024.1.5,None,2024-11-08 14h58.19.123752 +0530,
0.1,400,unexp,11,10,142,0,798.4738198998384,,798.4603027999401,798.4738198998384,799.4742434998043,799.4742434998043,799.4742434998043,800.0585924999323,space,0.5784600998740643,None,800.0590618997812,800.1749382664605,800.4875558000058,800.4736421999987,800.4736851998605,800.4875558000058,800.4875558000058,800.4875558000058,803.3094736000057,300,1,[2.8339160999748856],[2.833931199973449],088775,001,2024-11-08_14h58.10.819,Priyanshi.AU2220101_Intentional.binding,2024.1.5,None,2024-11-08 14h58.19.123752 +0530,
0.7,400,unexp,11,11,143,2,803.3242639999371,,803.3104212998878,803.3242639999371,804.3243793998845,804.3243793998845,804.3243793998845,805.5248794998042,space,1.184937900165096,None,805.5254386998713,806.2400460665269,806.5470269999932,806.532707599923,806.5327421999536,806.5470269999932,806.5470269999932,806.5470269999932,809.9766836999916,250,1,[3.441858100006357],[3.441885899985209],088775,001,2024-11-08_14h58.10.819,Priyanshi.AU2220101_Intentional.binding,2024.1.5,None,2024-11-08 14h58.19.123752 +0530,
0.7,1000,exp,12,0,144,8,809.9903924998362,,809.9774913999718,809.9903924998362,810.9905303998385,810.9905303998385,810.9905303998385,811.5587708998937,space,0.5620230999775231,None,811.5594451997895,812.2740402664679,812.5867543998174,812.5732389998157,812.5732970999088,812.5867543998174,812.5867543998174,812.5867543998174,814.7918026999105,400,1,[2.2159932998474687],[2.2160036000423133],088775,001,2024-11-08_14h58.10.819,Priyanshi.AU2220101_Intentional.binding,2024.1.5,None,2024-11-08 14h58.19.123752 +0530,
0.7,400,unexp,12,1,145,2,814.806872599991,,814.7926216998603,814.806872599991,815.8074336999562,815.8074336999562,815.8074336999562,816.4751362998504,space,0.656783799873665,None,816.4756778997835,817.190160466653,,817.4190545999445,817.4190990999341,817.4301293999888,817.4301293999888,817.4301293999888,820.8750059998129,350,1,[3.453832200029865],[3.453842299990356],088775,001,2024-11-08_14h58.10.819,Priyanshi.AU2220101_Intentional.binding,2024.1.5,None,2024-11-08 14h58.19.123752 +0530,
0.4,1000,exp,12,2,146,4,820.8897037999704,,820.8759517997969,820.8897037999704,821.8900717999786,821.8900717999786,821.8900717999786,825.2751440999564,space,3.3780356000643224,None,825.2757248999551,825.6899968665714,825.9898665999062,825.9751907999162,825.975231999997,825.9898665999062,825.9898665999062,825.9898665999062,829.0247438999359,600,1,[3.0479588001035154],[3.04797019995749],088775,001,2024-11-08_14h58.10.819,Priyanshi.AU2220101_Intentional.binding,2024.1.5,None,2024-11-08 14h58.19.123752 +0530,
0.1,1000,exp,12,3,147,9,829.0397106998134,,829.0256666999776,829.0397106998134,830.0396917997859,830.0396917997859,830.0396917997859,832.4414031999186,space,2.396288499934599,None,832.4421734998468,832.5568891666519,832.8659141999669,832.8532455000095,832.8532825999428,832.8659141999669,832.8659141999669,832.8659141999669,835.3084319999907,500,1,[2.453246699878946],[2.4532575998455286],088775,001,2024-11-08_14h58.10.819,Priyanshi.AU2220101_Intentional.binding,2024.1.5,None,2024-11-08 14h58.19.123752 +0530,
0.1,400,unexp,12,4,148,0,835.3234641999006,,835.3093932999764,835.3234641999006,836.3233885997906,836.3233885997906,836.3233885997906,838.6243162997998,space,2.284512000158429,None,838.6250684999395,838.7396902666117,839.0453842999414,839.0327073999215,839.0327465999871,839.0453842999414,839.0453842999414,839.0453842999414,842.9075996999163,450,1,[3.872759700054303],[3.8727712999098003],088775,001,2024-11-08_14h58.10.819,Priyanshi.AU2220101_Intentional.binding,2024.1.5,None,2024-11-08 14h58.19.123752 +0530,
0.4,1000,exp,12,5,149,10,842.9225812999066,,842.9088263998274,842.9225812999066,843.9241666998714,843.9241666998714,843.9241666998714,844.4583678999916,space,0.5187796999234706,None,844.4593882998452,844.8732997666268,845.1852204999886,845.1729845998343,845.1730272998102,845.1852204999886,845.1852204999886,845.1852204999886,847.8915405999869,500,1,[2.716253299964592],[2.7162659999448806],088775,001,2024-11-08_14h58.10.819,Priyanshi.AU2220101_Intentional.binding,2024.1.5,None,2024-11-08 14h58.19.123752 +0530,
0.7,1000,exp,12,6,150,5,847.9063583998941,,847.8927939999849,847.9063583998941,848.9060062998906,848.9060062998906,848.9060062998906,852.8741324997973,space,3.957128700101748,None,852.8748026997782,853.5893215665749,853.8959499998018,853.8827995997854,853.8828349998221,853.8959499998018,853.8959499998018,853.8959499998018,857.8742333999835,600,1,[3.9892915000673383],[3.9893036999274045],088775,001,2024-11-08_14h58.10.819,Priyanshi.AU2220101_Intentional.binding,2024.1.5,None,2024-11-08 14h58.19.123752 +0530,
0.1,1000,exp,12,7,151,3,857.8889647999313,,857.8751398997847,857.8889647999313,858.8893666998483,858.8893666998483,858.8893666998483,859.690723199863,space,0.7984029999934137,None,859.691441499861,859.806094566655,860.1151137999259,860.1027876997832,860.102832699893,860.1151137999259,860.1151137999259,860.1151137999259,867.1578769998159,400,1,[7.052760199876502],[7.0527733999770135],088775,001,2024-11-08_14h58.10.819,Priyanshi.AU2220101_Intentional.binding,2024.1.5,None,2024-11-08 14h58.19.123752 +0530,
0.1,1000,exp,12,8,152,6,867.1724139999133,,867.1587961998302,867.1724139999133,868.1724972999655,868.1724972999655,868.1724972999655,869.8407990999985,space,1.6633037000428885,None,869.8416757998057,869.9559645665033,870.3152261998039,870.300252799876,870.300300099887,870.3152261998039,870.3152261998039,870.3152261998039,873.9405401998665,300,1,[3.6379348000045866],[3.637947600102052],088775,001,2024-11-08_14h58.10.819,Priyanshi.AU2220101_Intentional.binding,2024.1.5,None,2024-11-08 14h58.19.123752 +0530,
0.4,400,unexp,12,9,153,1,873.9559214999899,,873.9416481999215,873.9559214999899,874.9551622997969,874.9551622997969,874.9551622997969,875.5230127999093,space,0.551796100102365,None,875.5236203998793,875.9386636666643,876.2467987998389,876.233072699979,876.233106300002,876.2467987998389,876.2467987998389,876.2467987998389,882.7252951997798,100,1,[6.490324000129476],[6.490336500108242],088775,001,2024-11-08_14h58.10.819,Priyanshi.AU2220101_Intentional.binding,2024.1.5,None,2024-11-08 14h58.19.123752 +0530,
0.4,1000,exp,12,10,154,7,882.7388708000071,,882.7261787999887,882.7388708000071,883.7388525998686,883.7388525998686,883.7388525998686,884.3067204998806,space,0.5537897001486272,None,884.3073427998461,884.7221740666466,885.040539199952,885.0233637997881,885.0234147999436,885.040539199952,885.040539199952,885.040539199952,888.5565847000107,400,1,[3.5309927000198513],[3.531003399984911],088775,001,2024-11-08_14h58.10.819,Priyanshi.AU2220101_Intentional.binding,2024.1.5,None,2024-11-08 14h58.19.123752 +0530,
0.7,1000,exp,12,11,155,11,888.5717267999426,,888.5575238999445,888.5717267999426,889.572793699801,889.572793699801,889.572793699801,890.3566701000091,space,0.769469799939543,None,890.3573985998519,891.0720474664743,891.3848913998809,891.3725083000027,891.3725557997823,891.3848913998809,891.3848913998809,891.3848913998809,894.4395483999979,500,1,[3.064861200051382],[3.0648705000057817],088775,001,2024-11-08_14h58.10.819,Priyanshi.AU2220101_Intentional.binding,2024.1.5,None,2024-11-08 14h58.19.123752 +0530,
0.1,1000,exp,13,0,156,3,894.4550001998432,,894.4404807998799,894.4550001998432,895.4554425999522,895.4554425999522,895.4554425999522,896.8732053998392,space,1.4111426998861134,None,896.8738856997807,896.988512166605,897.2953845998272,897.2828016998246,897.2828388998751,897.2953845998272,897.2953845998272,897.2953845998272,899.7560713998973,600,1,[2.471326099941507],[2.471335500013083],088775,001,2024-11-08_14h58.10.819,Priyanshi.AU2220101_Intentional.binding,2024.1.5,None,2024-11-08 14h58.19.123752 +0530,
0.7,1000,exp,13,1,157,11,899.7716469999868,,899.75700519979,899.7716469999868,900.7717227998655,900.7717227998655,900.7717227998655,901.3228268998209,space,0.5471167000941932,None,901.3234712998383,902.0382690665467,902.3461797998752,902.3326890999451,902.3327245998662,902.3461797998752,902.3461797998752,902.3461797998752,904.9400306998286,700,1,[2.6054062000475824],[2.6054180001374334],088775,001,2024-11-08_14h58.10.819,Priyanshi.AU2220101_Intentional.binding,2024.1.5,None,2024-11-08 14h58.19.123752 +0530,
0.7,1000,exp,13,2,158,5,904.9547066998202,,904.9408927999903,904.9547066998202,905.9552130999509,905.9552130999509,905.9552130999509,906.6395620999392,space,0.6690823000390083,None,906.6404177998193,907.355021766449,907.6692163997795,907.6576783999335,907.6577080998104,907.6692163997795,907.6692163997795,907.6692163997795,910.5894935999531,500,1,[2.9299916999880224],[2.930001800181344],088775,001,2024-11-08_14h58.10.819,Priyanshi.AU2220101_Intentional.binding,2024.1.5,None,2024-11-08 14h58.19.123752 +0530,
0.4,1000,exp,13,3,159,7,910.6050153998658,,910.5904601998627,910.6050153998658,911.6044607998338,911.6044607998338,911.6044607998338,912.9895905999001,space,1.3818620000965893,None,912.9903145998251,913.4049564665804,913.7157977998722,913.702303199796,913.702358599985,913.7157977998722,913.7157977998722,913.7157977998722,916.2054282999597,600,1,[2.500319000100717],[2.5003305999562144],088775,001,2024-11-08_14h58.10.819,Priyanshi.AU2220101_Intentional.binding,2024.1.5,None,2024-11-08 14h58.19.123752 +0530,
0.7,1000,exp,13,4,160,8,916.2207954998594,,916.2063864998054,916.2207954998594,917.2212395998649,917.2212395998649,917.2212395998649,917.7560460998211,space,0.5275788998696953,None,917.7566413998138,918.4713164666357,918.7844660999253,918.7725088999141,918.7725563999265,918.7844660999253,918.7844660999253,918.7844660999253,921.256261699833,700,1,[2.481502000009641],[2.481512099970132],088775,001,2024-11-08_14h58.10.819,Priyanshi.AU2220101_Intentional.binding,2024.1.5,None,2024-11-08 14h58.19.123752 +0530,
0.1,1000,exp,13,5,161,9,921.2710503998678,,921.2572347999085,921.2710503998678,922.2712266999297,922.2712266999297,922.2712266999297,923.8555609998293,space,1.5676345999818295,None,923.8561746999621,923.9709894664741,924.2854269999079,924.2727826999035,924.2728269998915,924.2854269999079,924.2854269999079,924.2854269999079,926.7068951998372,600,1,[2.4318627000320703],[2.431875499896705],088775,001,2024-11-08_14h58.10.819,Priyanshi.AU2220101_Intentional.binding,2024.1.5,None,2024-11-08 14h58.19.123752 +0530,
0.4,1000,exp,13,6,162,4,926.7209477999713,,926.7080699999351,926.7209477999713,927.7211310998537,927.7211310998537,927.7211310998537,930.0233118999749,space,2.29571760003455,None,930.024286699947,930.4380669666609,930.7464495999739,930.7325785998255,930.7326255999506,930.7464495999739,930.7464495999739,930.7464495999739,934.3392588999122,400,1,[3.6044483000878245],[3.60446110018529],088775,001,2024-11-08_14h58.10.819,Priyanshi.AU2220101_Intentional.binding,2024.1.5,None,2024-11-08 14h58.19.123752 +0530,
0.4,400,unexp,13,7,163,1,934.3540927998256,,934.3402304998599,934.3540927998256,935.3544226998929,935.3544226998929,935.3544226998929,935.9052297999151,space,0.5350901999045163,None,935.9058776998427,936.321080566446,936.6342169998679,936.6230995999649,936.6231477998663,936.6342169998679,936.6342169998679,936.6342169998679,939.3066455998924,200,1,[2.681491600116715],[2.68150130007416],088775,001,2024-11-08_14h58.10.819,Priyanshi.AU2220101_Intentional.binding,2024.1.5,None,2024-11-08 14h58.19.123752 +0530,
0.1,1000,exp,13,8,164,6,939.3204969000071,,939.307436299976,939.3204969000071,940.3206542998087,940.3206542998087,940.3206542998087,940.9219032998662,space,0.5981833999976516,None,940.9225854999386,941.0372454666688,941.3479421997909,941.3328578998335,941.3328914998565,941.3479421997909,941.3479421997909,941.3479421997909,944.0381838998292,400,1,[2.7034472001250833],[2.7034555999562144],088775,001,2024-11-08_14h58.10.819,Priyanshi.AU2220101_Intentional.binding,2024.1.5,None,2024-11-08 14h58.19.123752 +0530,
0.1,400,unexp,13,9,165,0,944.0537032999564,,944.0391729997937,944.0537032999564,945.0540402999613,945.0540402999613,945.0540402999613,945.5381044999231,space,0.47870390000753105,None,945.538613999961,945.6538225666775,945.9655956998467,945.9524156998377,945.9524731999263,945.9655956998467,945.9655956998467,945.9655956998467,948.2049130999949,100,1,[2.2500459998846054],[2.2500560998450965],088775,001,2024-11-08_14h58.10.819,Priyanshi.AU2220101_Intentional.binding,2024.1.5,None,2024-11-08 14h58.19.123752 +0530,
0.7,400,unexp,13,10,166,2,948.2203863998875,,948.2058386998251,948.2203863998875,949.2203561998904,949.2203561998904,949.2203561998904,949.7718632000033,space,0.5444986000657082,None,949.7724773997907,950.4873712666488,950.795726899989,950.7826825999655,950.7827554999385,950.795726899989,950.795726899989,950.795726899989,952.5382423999254,100,1,[1.7532051999587566],[1.753216699929908],088775,001,2024-11-08_14h58.10.819,Priyanshi.AU2220101_Intentional.binding,2024.1.5,None,2024-11-08 14h58.19.123752 +0530,
0.4,1000,exp,13,11,167,10,952.5542427999899,,952.5392499999143,952.5542427999899,953.5539730999153,953.5539730999153,953.5539730999153,954.1227926998399,space,0.5582910000812262,None,954.123770999955,954.5369286665848,954.8448523997795,954.832350899931,954.8323902999982,954.8448523997795,954.8448523997795,954.8448523997795,957.422316199867,500,1,[2.587893499992788],[2.587907100096345],088775,001,2024-11-08_14h58.10.819,Priyanshi.AU2220101_Intentional.binding,2024.1.5,None,2024-11-08 14h58.19.123752 +0530,
0.7,1000,exp,14,0,168,11,957.4367797998711,,957.4232162998524,957.4367797998711,958.4371755998582,958.4371755998582,958.4371755998582,958.9550534998998,space,0.5085124000906944,None,958.9557701000012,959.6703609666476,959.9815856998321,959.9690917998087,959.9691288999747,959.9815856998321,959.9815856998321,959.9815856998321,962.8885536999442,500,1,[2.917612300021574],[2.917625900125131],088775,001,2024-11-08_14h58.10.819,Priyanshi.AU2220101_Intentional.binding,2024.1.5,None,2024-11-08 14h58.19.123752 +0530,
0.4,1000,exp,14,1,169,7,962.9039397998713,,962.8896799997892,962.9039397998713,963.9037295999005,963.9037295999005,963.9037295999005,965.1548093999736,space,1.2381749998312443,None,965.1554619998205,965.5702167666207,965.884313999908,965.8726557998452,965.8727035999764,965.884313999908,965.884313999908,965.884313999908,967.5716538999695,500,1,[1.6969103999435902],[1.6969230000395328],088775,001,2024-11-08_14h58.10.819,Priyanshi.AU2220101_Intentional.binding,2024.1.5,None,2024-11-08 14h58.19.123752 +0530,
0.7,1000,exp,14,2,170,8,967.5866047998425,,967.5725547999609,967.5866047998425,968.58678399981,968.58678399981,968.58678399981,969.5384938998614,space,0.9491014999803156,None,969.5391938998364,970.2533042666657,970.5648081998806,970.5526879997924,970.552735599922,970.5648081998806,970.5648081998806,970.5648081998806,972.5051240997855,500,1,[1.9503504999447614],[1.9503617000300437],088775,001,2024-11-08_14h58.10.819,Priyanshi.AU2220101_Intentional.binding,2024.1.5,None,2024-11-08 14h58.19.123752 +0530,
0.7,1000,exp,14,3,171,5,972.5200110999867,,972.5061071999371,972.5200110999867,973.5198167997878,973.5198167997878,973.5198167997878,974.7549524998758,space,1.2330438999924809,None,974.7557457999792,975.4699293666674,975.7878653998487,975.7729620998725,975.7730099000037,975.7878653998487,975.7878653998487,975.7878653998487,978.0559926999267,500,1,[2.280646499944851],[2.2806613999418914],088775,001,2024-11-08_14h58.10.819,Priyanshi.AU2220101_Intentional.binding,2024.1.5,None,2024-11-08 14h58.19.123752 +0530,
0.1,1000,exp,14,4,172,6,978.0694747997914,,978.0570146997925,978.0694747997914,979.06965640001,979.06965640001,979.06965640001,980.8547294999007,space,1.7682452998124063,None,980.8555450998247,980.9701400665256,981.2840737998486,981.2724734998774,981.2725180999842,981.2840737998486,981.2840737998486,981.2840737998486,985.1711045999546,500,1,[3.896685300162062],[3.8966967000160366],088775,001,2024-11-08_14h58.10.819,Priyanshi.AU2220101_Intentional.binding,2024.1.5,None,2024-11-08 14h58.19.123752 +0530,
0.4,1000,exp,14,5,173,4,985.1860826998018,,985.172120800009,985.1860826998018,986.1861416997854,986.1861416997854,986.1861416997854,986.8211929998361,space,0.6329063000157475,None,986.8220128999092,987.2363891665048,987.5486810998991,987.532774799969,987.5328429997899,987.5486810998991,987.5486810998991,987.5486810998991,990.2879511998035,500,1,[2.751670900033787],[2.7516820000018924],088775,001,2024-11-08_14h58.10.819,Priyanshi.AU2220101_Intentional.binding,2024.1.5,None,2024-11-08 14h58.19.123752 +0530,
0.7,400,unexp,14,6,174,2,990.3023005998693,,990.2888739998452,990.3023005998693,991.3032466999721,991.3032466999721,991.3032466999721,991.7203288997989,space,0.40170749998651445,None,991.72086329991,992.4199344665433,992.7343450000044,992.7224150998518,992.7224524999037,992.7343450000044,992.7343450000044,992.7343450000044,996.7703125998378,120,1,[4.045948199927807],[4.04595739999786],088775,001,2024-11-08_14h58.10.819,Priyanshi.AU2220101_Intentional.binding,2024.1.5,None,2024-11-08 14h58.19.123752 +0530,
0.4,1000,exp,14,7,175,10,996.7859447998926,,996.7713082998525,996.7859447998926,997.786045299843,997.786045299843,997.786045299843,998.4050509999506,space,0.6037658001296222,None,998.4059341999236,998.8192251665207,999.1264433998149,999.1124199999031,999.1124574998394,999.1264433998149,999.1264433998149,999.1264433998149,1001.8210660999175,500,1,[2.70660959999077],[2.706620499957353],088775,001,2024-11-08_14h58.10.819,Priyanshi.AU2220101_Intentional.binding,2024.1.5,None,2024-11-08 14h58.19.123752 +0530,
0.1,1000,exp,14,8,176,9,1001.8356170000043,,1001.8219825997949,1001.8356170000043,1002.8359012999572,1002.8359012999572,1002.8359012999572,1003.3704617999028,space,0.5316898000892252,None,1003.3711802999023,1003.4857086665618,1003.8001136998646,1003.7824700998608,1003.7825167998672,1003.8001136998646,1003.8001136998646,1003.8001136998646,1006.3368819998577,500,1,[2.5520911999046803],[2.552099500084296],088775,001,2024-11-08_14h58.10.819,Priyanshi.AU2220101_Intentional.binding,2024.1.5,None,2024-11-08 14h58.19.123752 +0530,
0.4,400,unexp,14,9,177,1,1006.3521356999408,,1006.3378468998708,1006.3521356999408,1007.3522965998854,1007.3522965998854,1007.3522965998854,1008.2538393998984,space,0.8961207999382168,None,1008.254612099845,1008.6688859665921,1008.9782840998378,1008.9628062997945,1008.962852699915,1008.9782840998378,1008.9782840998378,1008.9782840998378,1012.1699014999904,250,1,[3.2050346999894828],[3.205047900089994],088775,001,2024-11-08_14h58.10.819,Priyanshi.AU2220101_Intentional.binding,2024.1.5,None,2024-11-08 14h58.19.123752 +0530,
0.1,400,unexp,14,10,178,0,1012.1852547999006,,1012.1708597999532,1012.1852547999006,1013.185631299857,1013.185631299857,1013.185631299857,1013.8201383999549,space,0.624384299851954,None,1013.8206562998239,1013.9356388664494,1014.2454741999973,1014.2323655998334,1014.2324136998504,1014.2454741999973,1014.2454741999973,1014.2454741999973,1018.6865954999812,200,1,[4.45146490004845],[4.451475499896333],088775,001,2024-11-08_14h58.10.819,Priyanshi.AU2220101_Intentional.binding,2024.1.5,None,2024-11-08 14h58.19.123752 +0530,
0.1,1000,exp,14,11,179,3,1018.7021886999719,,1018.687607599888,1018.7021886999719,1019.7019817999098,1019.7019817999098,1019.7019817999098,1020.2367413998581,space,0.5319628999568522,None,1020.2375074999873,1020.3518203665192,1020.6641461998224,1020.6520452999976,1020.6520897999872,1020.6641461998224,1020.6641461998224,1020.6641461998224,1023.5536739998497,400,1,[2.8993027999531478],[2.8993150000460446],088775,001,2024-11-08_14h58.10.819,Priyanshi.AU2220101_Intentional.binding,2024.1.5,None,2024-11-08 14h58.19.123752 +0530,
0.7,1000,exp,15,0,180,11,1023.5683236999903,,1023.5546214999631,1023.5683236999903,1024.5685308999382,1024.5685308999382,1024.5685308999382,1025.0030064999592,space,0.4185988998506218,None,1025.0036051999778,1025.7184235666102,1026.032495399937,1026.0125876998063,1026.012635299936,1026.032495399937,1026.032495399937,1026.032495399937,1028.0195583999157,500,1,[2.004509200109169],[2.004519199952483],088775,001,2024-11-08_14h58.10.819,Priyanshi.AU2220101_Intentional.binding,2024.1.5,None,2024-11-08 14h58.19.123752 +0530,
0.4,400,unexp,15,1,181,1,1028.0349703999236,,1028.0205258999486,1028.0349703999236,1029.035095399944,1029.035095399944,1029.035095399944,1029.5538063999265,space,0.5160691000055522,None,1029.5546070998535,1029.968272366623,1030.2770875999704,1030.2665463997982,1030.2665808999445,1030.2770875999704,1030.2770875999704,1030.2770875999704,1035.1546474997886,250,1,[4.885982400039211],[4.88599619991146],088775,001,2024-11-08_14h58.10.819,Priyanshi.AU2220101_Intentional.binding,2024.1.5,None,2024-11-08 14h58.19.123752 +0530,
0.4,1000,exp,15,2,182,10,1035.168616599869,,1035.155891599832,1035.168616599869,1036.1680874999147,1036.1680874999147,1036.1680874999147,1036.6861330999527,space,0.5018621000926942,None,1036.686697299825,1037.1016212665165,1037.415723899845,1037.4023008998483,1037.4023487998638,1037.415723899845,1037.415723899845,1037.415723899845,1040.052808099892,600,1,[2.6479986999183893],[2.648017599945888],088775,001,2024-11-08_14h58.10.819,Priyanshi.AU2220101_Intentional.binding,2024.1.5,None,2024-11-08 14h58.19.123752 +0530,
0.7,1000,exp,15,3,183,5,1040.0679206999484,,1040.0540299999993,1040.0679206999484,1041.0682251998223,1041.0682251998223,1041.0682251998223,1043.5526155999396,space,2.476287999888882,None,1043.553214599844,1044.2683885666231,1044.5783158999402,1044.5624963999726,1044.5625352999195,1044.5783158999402,1044.5783158999402,1044.5783158999402,1047.2857404998504,400,1,[2.7211009000893682],[2.721110299928114],088775,001,2024-11-08_14h58.10.819,Priyanshi.AU2220101_Intentional.binding,2024.1.5,None,2024-11-08 14h58.19.123752 +0530,
0.4,1000,exp,15,4,184,4,1047.3011842998676,,1047.286722799996,1047.3011842998676,1048.3012453999836,1048.3012453999836,1048.3012453999836,1049.6523604998365,space,1.33623390016146,None,1049.6529627998825,1050.067653566661,1050.3777652999852,1050.3624227999244,1050.3624706999399,1050.3777652999852,1050.3777652999852,1050.3777652999852,1052.7027605997864,350,1,[2.3382099999580532],[2.3382214000448585],088775,001,2024-11-08_14h58.10.819,Priyanshi.AU2220101_Intentional.binding,2024.1.5,None,2024-11-08 14h58.19.123752 +0530,
0.1,1000,exp,15,5,185,3,1052.7175821999554,,1052.7036926997826,1052.7175821999554,1053.7176396998111,1053.7176396998111,1053.7176396998111,1054.2019479998853,space,0.479221299989149,None,1054.2024904999416,1054.3176929664953,1054.6263066998217,1054.6122681999113,1054.6123044998385,1054.6263066998217,1054.6263066998217,1054.6263066998217,1060.9521448998712,650,1,[6.337773400126025],[6.337781500071287],088775,001,2024-11-08_14h58.10.819,Priyanshi.AU2220101_Intentional.binding,2024.1.5,None,2024-11-08 14h58.19.123752 +0530,
0.1,1000,exp,15,6,186,9,1060.9676341998857,,1060.9529575998895,1060.9676341998857,1061.9678310998715,1061.9678310998715,1061.9678310998715,1062.4851506999694,space,0.5023076001089066,None,1062.4856904998887,1062.6008991664896,1062.914678099798,1062.9020791999064,1062.9021254999097,1062.914678099798,1062.914678099798,1062.914678099798,1065.4206015998498,600,1,[2.5152801999356598],[2.5152946999296546],088775,001,2024-11-08_14h58.10.819,Priyanshi.AU2220101_Intentional.binding,2024.1.5,None,2024-11-08 14h58.19.123752 +0530,
0.7,400,unexp,15,7,187,2,1065.4340440998785,,1065.4220823999494,1065.4340440998785,1066.4339901998173,1066.4339901998173,1066.4339901998173,1069.9523725998588,space,3.5112559001427144,None,1069.9530652000103,1070.6671735665916,1070.9751484999433,1070.9621882999782,1070.9622225000057,1070.9751484999433,1070.9751484999433,1070.9751484999433,1074.1355462998617,200,1,[3.171438700053841],[3.1714504999108613],088775,001,2024-11-08_14h58.10.819,Priyanshi.AU2220101_Intentional.binding,2024.1.5,None,2024-11-08 14h58.19.123752 +0530,
0.1,400,unexp,15,8,188,0,1074.1504821998533,,1074.1365175999235,1074.1504821998533,1075.1505640998948,1075.1505640998948,1075.1505640998948,1075.5352467999328,space,0.3809634998906404,None,1075.5359673998319,1075.6505234665858,1075.9636006997898,1075.9528153999709,1075.9528500000015,1075.9636006997898,1075.9636006997898,1075.9636006997898,1079.5850156999659,200,1,[3.6301987001206726],[3.6302151000127196],088775,001,2024-11-08_14h58.10.819,Priyanshi.AU2220101_Intentional.binding,2024.1.5,None,2024-11-08 14h58.19.123752 +0530,
0.4,1000,exp,15,9,189,7,1079.6002492997795,,1079.5862734999973,1079.6002492997795,1080.6004847998265,1080.6004847998265,1080.6004847998265,1081.151722599985,space,0.5394520999398082,None,1081.1525394998025,1081.5668873666475,1081.8745660998393,1081.8621326999273,1081.8621727998834,1081.8745660998393,1081.8745660998393,1081.8745660998393,1084.3679368000012,600,1,[2.503826100146398],[2.503836000105366],088775,001,2024-11-08_14h58.10.819,Priyanshi.AU2220101_Intentional.binding,2024.1.5,None,2024-11-08 14h58.19.123752 +0530,
0.1,1000,exp,15,10,190,6,1084.3833878999576,,1084.3689180999063,1084.3833878999576,1085.3836366999894,1085.3836366999894,1085.3836366999894,1085.7181595999282,space,0.32299420004710555,None,1085.7188341999426,1085.833589666585,1086.1918045999482,1086.1801707998384,1086.1802210998721,1086.1918045999482,1086.1918045999482,1086.1918045999482,1089.4843402998522,500,1,[3.301808899967],[3.3018181999213994],088775,001,2024-11-08_14h58.10.819,Priyanshi.AU2220101_Intentional.binding,2024.1.5,None,2024-11-08 14h58.19.123752 +0530,
0.7,1000,exp,15,11,191,8,1089.5001118998043,,1089.4853178998455,1089.5001118998043,1090.5002959999256,1090.5002959999256,1090.5002959999256,1091.601518199779,space,1.096879499964416,None,1091.602326999884,1092.3167434665995,1092.6244817997795,1092.611998999957,1092.6120313999709,1092.6244817997795,1092.6244817997795,1092.6244817997795,1097.3001940997783,650,1,[4.68651259993203],[4.68652329989709],088775,001,2024-11-08_14h58.10.819,Priyanshi.AU2220101_Intentional.binding,2024.1.5,None,2024-11-08 14h58.19.123752 +0530,
0.7,400,unexp,16,0,192,2,1097.3159531999845,,1097.3014188997913,1097.3159531999845,1098.3161508999765,1098.3161508999765,1098.3161508999765,1098.9840316998307,space,0.6585067000705749,None,1098.9848072999157,1099.6999883666324,1100.0148198998068,1100.0024470998906,1100.0024898999836,1100.0148198998068,1100.0148198998068,1100.0148198998068,1102.2839410998859,200,1,[2.2793316000606865],[2.2793430001474917],088775,001,2024-11-08_14h58.10.819,Priyanshi.AU2220101_Intentional.binding,2024.1.5,None,2024-11-08 14h58.19.123752 +0530,
